packet_timestamp,statemachine,angle_roll,angle_pitch,angle_yaw,gyro_x,gyro_y,gyro_z,acc_x,acc_y,acc_z,rudder1,rudder2,rudder3,rudder4
5948,16,-1.672,34.118,42.588,-0.312,-1.135,-0.274,3.302,139.349,-0.321,0.92,-0.92,16.871,3.784
5949,16,-2.129,34.599,42.83,-0.179,0.545,0.113,3.302,139.349,-0.321,-4.413,4.413,-17.608,-11.106
5950,16,-2.654,34.94,42.988,-0.144,0.545,0.103,3.302,139.349,-0.321,-4.222,4.222,-18.238,-11.445
5951,16,-3.208,34.817,43.46,-0.144,-0.624,0.103,2.493,109.618,-4.766,-4.264,4.264,-1.773,5.905
5952,16,-3.413,34.725,43.596,-0.144,-0.624,0.103,-0.349,10.092,-4.905,-3.963,3.963,-1.109,5.468
5953,16,-3.122,31.169,44.24,0.731,-6.563,-0.11,-0.349,10.092,-4.905,-5.55,5.55,88.298,83.13
5954,16,-1.986,25.425,45.201,3.332,-6.563,-0.222,-0.349,10.092,-4.905,-5.9,5.9,88.542,82.887
5955,16,-0.303,21.042,45.764,3.332,-8.051,-0.222,0.933,2.842,3.426,-18.428,18.428,91.373,80.055
5956,16,0.511,18.856,45.99,3.332,-8.051,-0.222,1.091,2.311,6.685,-19.027,19.027,91.002,80.427
5957,16,2.018,14.364,46.421,3.181,-8.265,-0.34,1.091,2.311,6.685,-18.161,18.161,92.798,78.631
5958,16,4.011,7.756,46.864,2.565,-8.265,-0.334,1.091,2.311,6.685,-20.357,20.357,90.718,80.711
5959,16,5.769,5.092,47.159,2.565,-7.872,-0.334,0.971,2.378,9.69,-19.913,19.913,87.395,84.033
5960,16,5.605,1.404,47.129,2.565,-7.872,-0.334,0.871,1.876,10.992,-20.393,20.393,86.458,84.971
5961,16,5.993,-2.15,47.321,1.403,-6.716,-0.361,0.871,1.876,10.992,-15.478,15.478,85.356,86.072
5962,16,6.149,-7.196,47.551,-0.089,-6.716,-0.175,0.871,1.876,10.992,-17.409,17.409,82.876,88.553
5963,16,6.271,-8.874,47.708,-0.089,-5.85,-0.175,0.603,1.952,10.542,-12.427,12.427,77.501,93.928
5964,16,5.447,-11.703,47.765,-0.089,-5.85,-0.175,0.134,2.038,9.862,-11.801,11.801,77.996,93.433
5965,16,3.98,-14.039,47.982,-1.806,-4.723,-0.102,0.134,2.038,9.862,-2.008,2.008,78.67,92.758
5966,16,1.272,-17.204,48.43,-1.806,-4.723,-0.066,0.134,2.038,9.862,-0.448,0.448,80.596,90.832
5967,16,-0.661,-17.764,48.732,-3.46,-3.657,-0.066,-0.158,2.206,10.097,14.777,-14.777,84.287,77.343
5968,16,-2.44,-19.706,49.059,-3.46,-3.657,-0.066,-0.349,2.479,10.283,18.853,-18.853,89.652,71.979
5969,16,-5.696,-20.765,49.558,-4.77,-2.665,-0.096,-0.349,2.479,10.283,33.443,-33.443,86.368,46.926
5970,16,-10.839,-21.999,50.411,-4.77,-2.665,-0.179,-0.349,2.479,10.283,39.225,-39.225,94.597,38.697
5971,16,-14.139,-21.598,50.805,-5.57,-1.682,-0.179,-0.45,2.728,10.226,48.898,-48.898,99.896,5.305
5972,16,-16.44,-22.577,51.293,-5.57,-1.682,-0.179,-0.464,3.115,9.843,52.487,-52.487,107.075,-1.873
5973,16,-20.016,-22.385,51.844,-5.343,-0.788,-0.353,-0.464,3.115,9.843,54.658,-54.658,98.648,-18.982
5974,16,-25.031,-21.806,52.624,-5.343,-0.788,-0.651,-0.464,3.115,9.843,54.658,-54.658,98.648,-18.982
5975,16,-27.797,-20.844,53.015,-4.272,-0.061,-0.651,-0.574,3.043,9.317,57.245,-57.245,95.711,-36.833
5976,16,-29.39,-20.72,53.33,-4.272,-0.061,-0.651,-0.273,2.952,8.321,57.245,-57.245,95.711,-36.833
5977,16,-31.521,-19.596,53.725,-2.967,0.55,-0.934,-0.273,2.952,8.321,54.262,-54.262,94.075,-52.637
5978,16,-34.29,-17.708,54.186,-2.967,0.55,-1.154,-0.273,2.952,8.321,54.262,-54.262,94.075,-52.637
5979,16,-35.757,-16.484,54.497,-1.641,1.171,-1.154,-0.416,2.641,7.546,50.374,-50.374,90.689,-66.995
5980,16,-36.232,-15.447,54.461,-1.641,1.171,-1.154,-0.273,2.45,6.417,50.374,-50.374,90.689,-66.995
5981,16,-36.81,-13.637,54.517,-0.446,1.682,-1.352,-0.273,2.45,6.417,46.879,-46.879,88.338,-79.253
5982,16,-37.278,-10.829,54.484,-0.446,1.682,-1.352,-0.273,2.45,6.417,46.879,-46.879,88.338,-79.253
5983,16,-37.492,-9.566,54.636,0.829,2.093,-1.352,0.177,2.45,5.436,40.504,-40.504,82.463,-85.128
5984,16,-36.988,-7.84,54.287,0.829,2.093,-1.352,0.464,2.354,4.436,40.504,-40.504,82.463,-85.128
5985,16,-35.887,-5.784,53.941,2.38,2.411,-1.109,0.464,2.354,4.436,29.713,-29.713,71.856,-83.591
5986,16,-33.801,-2.7,53.346,2.38,2.411,-0.735,0.464,2.354,4.436,29.713,-29.713,71.856,-83.591
5987,16,-32.421,-1.808,53.182,3.934,2.647,-0.735,0.613,2.297,3.752,15.259,-15.259,55.113,-73.604
5988,16,-30.854,0.404,52.6,3.934,2.647,-0.735,0.708,2.33,2.909,12.568,-12.568,49.732,-68.222
5989,16,-28.08,2.437,51.89,5.387,2.818,-0.248,0.708,2.33,2.909,-3.828,3.828,29.033,-52.394
5990,16,-23.559,5.49,50.831,5.387,2.818,0.267,0.708,2.33,2.909,-5.423,5.423,25.844,-49.205
5991,16,-20.769,6.01,50.433,6.82,2.847,0.267,0.742,2.464,1.565,-23.052,23.052,4.489,-28.702
5992,16,-18.247,8.534,49.697,6.82,2.847,0.267,0.603,2.795,0.392,-25.917,25.917,-1.243,-22.97
5993,16,-14.004,10.412,48.829,8.217,2.677,0.794,0.603,2.795,0.392,-38.518,38.518,-18.661,-3.588
5994,16,-11.898,11.367,48.441,8.217,2.677,1.289,0.603,2.795,0.392,-39.699,39.699,-22.116,-2.318
5995,16,-3.289,13.272,46.901,9.43,2.267,1.289,0.402,2.847,-1.369,-48.789,48.789,-36.66,19.498
5996,16,-0.184,15.711,46.509,9.43,2.267,1.289,0.297,3.01,-3.512,-50.804,50.804,-44.079,20.136
5997,16,5.023,17.083,45.662,10.299,1.61,1.728,0.297,3.01,-3.512,-57.786,57.786,-50.686,41.458
5998,16,7.619,17.78,45.286,10.299,1.61,1.728,0.297,3.01,-3.512,-58.404,58.404,-53.002,41.615
5999,16,17.277,18.876,43.412,10.203,0.877,2.025,-0.038,3.196,-5.312,-63.085,63.085,-53.612,59.728
6000,16,20.39,20.612,43.391,10.203,0.877,2.025,-0.574,3.082,-5.704,-64.184,64.184,-58.829,58.909
6001,16,24.617,21.371,42.583,8.762,0.201,2.115,-0.574,3.082,-5.704,-65.703,65.703,-53.583,70.229
6002,16,26.741,21.761,42.21,8.762,0.201,2.115,-0.574,3.082,-5.704,-65.842,65.842,-54.555,69.811
6003,16,32.897,22.577,40.523,6.357,-0.071,2.028,-0.885,3.01,-5.101,-64.271,64.271,-48.46,69.624
6004,16,34.693,23.468,40.516,6.357,-0.071,2.028,-1.048,2.771,-3.565,-64.764,64.764,-51.342,68.714
6005,16,36.328,24.081,39.989,4.027,-0.091,1.844,-1.048,2.771,-3.565,-59.826,59.826,-46.784,62.987
6006,16,37.15,24.392,39.733,4.027,-0.091,1.844,-1.048,2.771,-3.565,-59.675,59.675,-46.908,62.258
6007,16,38.624,25.345,38.846,1.937,-0.006,1.607,-1.12,2.708,-3.484,-45.268,45.268,-41.021,52.317
6008,16,39.022,25.868,38.812,1.937,-0.006,1.607,-1.187,2.761,-4.311,-45.282,45.282,-42.022,51.373
6009,16,38.391,26.448,38.685,-0.261,0.202,1.375,-1.187,2.761,-4.311,-30.895,30.895,-38.815,40.984
6010,16,38.075,26.733,38.616,-0.261,0.202,1.375,-1.187,2.761,-4.311,-30.656,30.656,-38.64,40.203
6011,16,35.285,27.831,38.7,-2.286,0.423,1.104,-1.431,2.828,-4.287,-16.278,16.278,-34.507,27.327
6012,16,34.414,28.128,38.691,-2.286,0.423,1.104,-1.785,3.115,-4.536,-15.938,15.938,-34.072,26.401
6013,16,31.613,28.668,38.955,-4.454,0.61,0.821,-1.785,3.115,-4.536,-1.12,1.12,-29.378,15.18
6014,16,30.212,28.934,39.078,-4.454,0.61,0.821,-1.785,3.115,-4.536,-0.918,0.918,-29.278,14.47
6015,16,23.193,30.243,40.012,-6.517,0.781,0.45,-1.995,3.378,-4.637,14.261,-14.261,-23.906,0.396
6016,16,21.125,30.261,40.102,-6.517,0.781,0.45,-1.909,3.613,-6.216,14.835,-14.835,-22.506,-0.5
6017,16,16.516,30.814,40.773,-8.11,0.938,0.07,-1.909,3.613,-6.216,24.661,-24.661,-15.701,-13.343
6018,16,14.213,31.098,41.092,-8.11,0.938,0.07,-1.909,3.613,-6.216,24.708,-24.708,-16.011,-13.844
6019,16,4.466,32.681,42.562,-9.2,0.92,-0.297,-1.771,3.972,-8.092,29.226,-29.226,-9.014,-24.919
6020,16,1.708,32.5,42.99,-9.2,0.92,-0.297,-1.402,3.976,-9.307,29.058,-29.058,-9.101,-24.335
6021,16,-3.195,32.962,43.957,-9.09,0.687,-0.659,-1.402,3.976,-9.307,33.286,-33.286,2.031,-30.113
6022,16,-5.643,33.212,44.431,-9.09,0.687,-0.659,-1.402,3.976,-9.307,33.097,-33.097,1.313,-30.076
6023,16,-13.858,34.454,46.226,-7.804,0.319,-0.868,-0.656,3.441,-8.996,33.936,-33.936,6.881,-27.861
6024,16,-16.188,34.197,47.035,-7.804,0.319,-0.868,-0.201,3.062,-7.929,34.637,-34.637,8.467,-29.083
6025,16,-19.265,34.441,48.224,-6.272,-0.026,-0.976,-0.201,3.062,-7.929,35.612,-35.612,15.101,-26.348
6026,16,-23.354,34.813,50.076,-6.272,-0.026,-0.976,-0.201,3.062,-7.929,35.412,-35.412,14.581,-26.069
6027,16,-25.418,35.246,50.317,-4.648,-0.289,-1.105,0.201,2.991,-6.972,36.001,-36.001,18.988,-24.017
6028,16,-26.41,35.138,52.069,-4.648,-0.289,-1.105,0.474,2.847,-6.034,36.196,-36.196,19.443,-24.339
6029,16,-27.444,35.375,53.489,-3.005,-0.345,-1.219,0.474,2.847,-6.034,29.905,-29.905,22.377,-26.141
6030,16,-27.963,35.496,54.195,-3.005,-0.345,-1.219,0.474,2.847,-6.034,29.78,-29.78,22.006,-26.01
6031,16,-28.665,35.901,56.276,-1.278,-0.414,-1.228,0.785,2.823,-5.9,20.328,-20.328,21.29,-23.456
6032,16,-28.52,36.053,57.793,-1.278,-0.414,-1.228,0.919,2.909,-5.919,20.872,-20.872,21.786,-25.135
6033,16,-27.478,36.314,59.208,0.607,-0.292,-1.239,0.919,2.909,-5.919,11.547,-11.547,19.836,-27.495
6034,16,-25.377,36.66,61.318,0.607,-0.292,-1.239,0.919,2.909,-5.919,11.54,-11.54,19.628,-27.678
6035,16,-23.649,36.485,62.305,2.51,-0.261,-1.187,0.986,2.929,-6.632,1.772,-1.772,18.387,-27.896
6036,16,-22.216,36.928,63.393,2.51,-0.261,-1.187,0.813,2.885,-6.843,1.747,-1.747,17.661,-28.522
6037,16,-19.647,36.516,64.686,4.029,-0.242,-1.091,0.813,2.885,-6.843,-6.508,6.508,16.462,-27.083
6038,16,-14.552,37.114,66.634,4.029,-0.242,-1.091,0.813,2.885,-6.843,-6.478,6.478,15.666,-27.997
6039,16,-11.477,36.494,67.751,5.327,-0.201,-1.04,0.536,3.015,-6.843,-14.238,14.238,16.534,-28.964
6040,16,-9.136,37.088,68.482,5.327,-0.201,-1.04,0.388,3.082,-7.489,-15.202,15.202,16.045,-30.285
6041,16,-5.59,36.207,69.521,6.385,-0.245,-1.027,0.388,3.082,-7.489,-21.787,21.787,18.831,-29.48
6042,16,-2.865,36.894,70.29,6.385,-0.245,-1.027,0.388,3.082,-7.489,-22.346,22.346,18.471,-31.143
6043,16,4.903,35.588,72.407,6.623,-0.402,-0.918,-0.029,3.192,-7.723,-23.735,23.735,19.75,-24.31
6044,16,7.586,36.118,72.998,6.623,-0.402,-0.918,-0.368,3.33,-7.446,-22.258,22.258,22.057,-27.909
6045,16,10.917,35.056,73.687,6.361,-0.438,-0.87,-0.368,3.33,-7.446,-22.671,22.671,23.321,-24.994
6046,16,17.231,34.994,75.31,6.361,-0.438,-0.87,-0.368,3.33,-7.446,-22.271,22.271,23.619,-26.298
6047,16,20.185,33.902,75.951,5.804,-0.417,-0.86,-0.445,3.101,-7.087,-22.971,22.971,24.004,-23.11
6048,16,22.503,34.239,76.559,5.804,-0.417,-0.86,-0.507,3.125,-6.527,-21.973,21.973,25.911,-25.197
6049,16,25.056,33.343,77.089,5.053,-0.274,-0.813,-0.507,3.125,-6.527,-22.819,22.819,23.448,-24.278
6050,16,29.85,33.556,77.735,5.053,-0.274,-0.813,-0.507,3.125,-6.527,-22.566,22.566,23.755,-24.981
6051,16,31.912,32.283,78.902,4.36,-0.137,-0.761,-0.507,3.072,-6.273,-23.418,23.418,20.187,-22.342
6052,16,33.709,32.491,79.573,4.36,-0.137,-0.761,-0.589,3.163,-6.589,-22.815,22.815,21.476,-23.468
6053,16,35.484,31.845,80.058,3.641,0.001,-0.679,-0.589,3.163,-6.589,-20.634,20.634,17.481,-21.803
6054,16,36.898,31.967,80.616,3.641,0.001,-0.679,-0.589,3.163,-6.589,-20.497,20.497,17.655,-22.179
6055,16,39.993,31.161,81.64,2.806,0.182,-0.595,-0.727,3.153,-6.781,-18.179,18.179,12.066,-20.337
6056,16,41.213,31.258,82.346,2.806,0.182,-0.595,-0.66,3.158,-7.058,-17.8,17.8,13.005,-20.914
6057,16,42.107,30.907,82.884,1.908,0.281,-0.489,-0.66,3.158,-7.058,-14.917,14.917,8.765,-18.723
6058,16,42.852,30.964,83.344,1.908,0.281,-0.489,-0.66,3.158,-7.058,-14.858,14.858,8.836,-18.89
6059,16,43.947,30.75,84.366,0.958,0.432,-0.422,-0.77,3.039,-6.709,-11.383,11.383,4.066,-18.556
6060,16,44.5,30.632,85.055,0.958,0.432,-0.422,-0.876,3.015,-6.886,-11.212,11.212,4.831,-18.476
6061,16,44.505,30.558,85.743,0.02,0.524,-0.368,-0.876,3.015,-6.886,-7.268,7.268,2.11,-18.221
6062,16,44.536,30.543,86.108,0.02,0.524,-0.368,-0.876,3.015,-6.886,-7.282,7.282,2.1,-18.179
6063,16,43.931,30.357,87.234,-1.219,0.473,-0.559,-9.097,-1.225,-8.542,0.839,-0.839,6.533,-21.45
6064,16,43.362,30.194,88.035,-1.219,0.473,-0.559,-52.953,-49.713,-22.289,1.001,-1.001,7.356,-21.273
6065,16,34.725,25.503,99.76,-31.791,-3.481,-20.159,-52.953,-49.713,-22.289,100.25,-100.25,205.011,-94.989
6066,16,8.278,10.796,116.899,-31.791,-3.481,-20.159,-52.953,-49.713,-22.289,100.25,-100.25,215.363,-84.636
6067,16,1.392,7.211,125.958,-29.173,-9.282,-32.382,57.254,-128.802,-67.188,100.25,-100.25,235.714,-64.286
6068,16,-13.574,3.546,144.86,-29.173,-9.282,-32.382,8.034,-15.088,11.862,100.25,-100.25,235.714,-64.286
6069,16,-18.051,-5.679,157.226,-20.012,-26.651,-34.578,8.034,-15.088,11.862,100.25,-100.25,235.714,-64.286
6070,16,-45.216,-8.792,-154.463,-20.012,-26.651,-34.578,8.034,-15.088,11.862,100.25,-100.25,235.714,-64.286
6071,16,-51.172,-9.068,-142.031,-14.21,-32.527,-28.567,-9.886,2.594,-8.704,100.25,-100.25,235.714,-64.286
6072,16,-62.539,-5.884,-117.568,-14.21,-32.527,-28.567,-9.929,10.226,-11.082,100.25,-100.25,235.714,-64.286
6073,16,-68.838,-3.037,-100.907,-1.615,-31.351,-26.651,-9.929,10.226,-11.082,85.825,-85.825,235.714,-64.286
6074,16,-60.883,8.966,-62.432,-1.615,-31.351,-26.651,-9.929,10.226,-11.082,85.825,-85.825,235.714,-64.286
6075,16,-56.43,12.007,-51.882,8.979,-25.865,-29.05,-5.79,14.073,-3.249,40.25,-40.25,235.714,-64.286
6076,16,-46.122,15.415,-29.935,8.979,-25.865,-29.05,-0.603,6.934,2.101,40.25,-40.25,235.714,-64.286
6077,16,-30.177,22.483,-8.672,17.708,-16.593,-34.208,-0.603,6.934,2.101,40.25,-40.25,235.714,-64.286
6078,16,-1.214,18.462,26.541,17.708,-16.593,-34.208,-0.603,6.934,2.101,40.25,-40.25,235.714,-64.286
6079,16,8.568,17.53,37.294,22.354,-0.887,-34.894,-1.842,4.981,-3.369,40.25,-40.25,180.289,-119.711
6080,16,26.442,10.819,57.173,22.354,-0.887,-34.894,-0.254,6.163,-5.838,40.25,-40.25,187.118,-112.882
6081,16,36.473,5.297,73.491,19.868,16.472,-34.833,-0.254,6.163,-5.838,40.25,-40.25,64.286,-235.714
6082,16,56.401,-4.228,111.602,19.868,16.472,-34.833,-0.254,6.163,-5.838,40.25,-40.25,64.286,-235.714
6083,16,58.34,-7.45,123.032,11.108,27.207,-30.372,-0.354,6.063,-4.814,40.25,-40.25,64.286,-235.714
6084,16,60.126,-14.576,145.8,11.108,27.207,-30.372,-2.316,3.445,-0.909,40.25,-40.25,64.286,-235.714
6085,16,55.073,-12.665,159.666,0.394,29.415,-25.107,-2.316,3.445,-0.909,60.779,-60.779,64.286,-235.714
6086,16,40.992,-16.577,-158.03,0.394,29.415,-25.107,-2.316,3.445,-0.909,60.779,-60.779,64.286,-235.714
6087,16,35.595,-14.622,-147.827,-9.019,26.851,-23.323,-5.087,3.732,2.871,100.25,-100.25,64.286,-235.714
6088,16,26.478,-8.205,-128.523,-9.019,26.851,-23.323,-5.843,8.551,1.957,100.25,-100.25,64.286,-235.714
6089,16,22.064,-4.324,-118.409,-16.35,21.247,-23.383,-5.843,8.551,1.957,100.25,-100.25,64.286,-235.714
6090,16,2.32,10.685,-89.733,-16.35,21.247,-23.383,-5.843,8.551,1.957,100.25,-100.25,64.286,-235.714
6091,16,-2.276,14.437,-82.479,-22.078,13.511,-25.821,-0.766,6.455,-1.646,100.25,-100.25,64.286,-235.714
6092,16,-10.214,24.012,-67.302,-22.078,13.511,-25.821,-1.967,1.775,-3.675,100.25,-100.25,64.286,-235.714
6093,16,-15.32,26.872,-50.016,-24.373,2.55,-28.631,-1.967,1.775,-3.675,100.25,-100.25,117.878,-182.122
6094,16,-19.629,37.014,-19.888,-24.373,2.55,-28.631,-1.967,1.775,-3.675,100.25,-100.25,109.798,-190.202
6095,16,-18.702,37.553,-8.782,-20.145,-8.52,-29.077,-2.675,2.062,-3.106,100.25,-100.25,235.714,-64.286
6096,16,-16.506,38.142,13.605,-20.145,-8.52,-29.077,-2.809,2.905,-0.928,100.25,-100.25,235.714,-64.286
6097,16,-12.757,36.165,25.087,-11.929,-14.768,-28.304,-2.809,2.905,-0.928,100.25,-100.25,235.714,-64.286
6098,16,-1.508,26.538,66.032,-11.929,-14.768,-28.304,-2.809,2.905,-0.928,100.25,-100.25,235.714,-64.286
6099,16,-0.731,19.953,74.587,-3.124,-15.91,-27.885,-2.732,3.316,-0.77,86.243,-86.243,235.714,-64.286
6100,16,2.008,10.866,91.232,-3.124,-15.91,-27.885,-3.311,4.847,-1.771,84.81,-84.81,235.714,-64.286
6101,16,7.188,3.828,99.233,4.452,-12.7,-28.187,-3.311,4.847,-1.771,43.992,-43.992,235.714,-64.286
6102,16,9.949,-10.524,129.755,4.452,-12.7,-28.187,-3.311,4.847,-1.771,43.35,-43.35,235.714,-64.286
6103,16,9.924,-14.093,137.76,9.531,-6.816,-28.406,-3.311,4.847,-2.981,40.25,-40.25,235.714,-64.286
6104,16,10.794,-20.511,153.72,9.531,-6.816,-28.406,-3.919,7.273,-2.981,40.25,-40.25,235.714,-64.286
6105,16,10.695,-24.449,161.739,9.531,-6.816,-28.406,-3.062,8.647,-3.33,42.5,-42.5,235.714,-64.286
6106,16,6.954,-28.551,-163.241,11.166,-0.168,-28.048,-3.062,8.647,-3.33,42.5,-42.5,180.976,-119.024
6107,16,7.042,-27.959,-154.757,9.583,5.865,-27.459,-3.062,8.647,-3.33,42.5,-42.5,94.781,-205.219
6108,16,4.811,-25.935,-137.297,9.583,5.865,-27.459,-2.091,7.738,-2.962,42.5,-42.5,94.781,-205.219
6109,16,5.197,-22.282,-128.828,9.583,5.865,-27.459,-1.397,4.871,-2.283,42.5,-42.5,94.781,-205.219
6110,16,1.093,-18.732,-112.174,5.371,10.824,-26.645,-1.397,4.871,-2.283,44.816,-44.816,64.286,-235.714
6111,16,-1.224,-8.157,-88.968,-0.315,13.413,-25.751,-1.397,4.871,-2.283,74.855,-74.855,64.286,-235.714
6112,16,-2.213,0.338,-74.513,-0.315,13.413,-25.751,-1.818,1.321,-1.536,75.35,-75.35,64.286,-235.714
6113,16,-0.885,5.264,-67.272,-0.315,13.413,-25.751,-2.517,-0.426,-2.091,74.564,-74.564,64.286,-235.714
6114,16,-0.116,17.958,-38.093,-5.695,13.344,-25.153,-2.517,-0.426,-2.091,102.426,-102.426,64.286,-235.714
6115,16,-1.14,24.884,-30.671,-9.902,10.912,-24.845,-2.517,-0.426,-2.091,102.5,-102.5,64.286,-235.714
6116,16,1.022,31.306,-14.505,-9.902,10.912,-24.845,-3.464,-0.794,-2.675,102.5,-102.5,64.286,-235.714
6117,16,1.71,34.177,-6.272,-9.902,10.912,-24.845,-3.699,-0.225,-3.402,102.5,-102.5,64.286,-235.714
6118,16,10.671,37.719,30.121,-12.247,6.837,-24.618,-3.699,-0.225,-3.402,102.5,-102.5,64.286,-235.714
6119,16,13.085,37.883,39.22,-12.487,2.157,-24.266,-3.699,-0.225,-3.402,102.5,-102.5,108.216,-191.784
6120,16,16.408,35.497,56.431,-12.487,2.157,-24.266,-3.287,0.646,-2.818,102.5,-102.5,111.651,-188.349
6121,16,17.672,34.042,64.768,-12.487,2.157,-24.266,-2.172,1.182,-1.967,102.5,-102.5,113.682,-186.318
6122,16,20.843,24.235,94.201,-10.926,-2.285,-23.802,-2.172,1.182,-1.967,102.5,-102.5,184.691,-115.309
6123,16,19.034,19.122,99.911,-8.131,-5.784,-23.455,-2.172,1.182,-1.967,102.5,-102.5,235.714,-64.286
6124,16,17.722,11.87,112.323,-8.131,-5.784,-23.455,-1.297,0.88,-1.555,102.5,-102.5,235.714,-64.286
6125,16,17.206,7.206,118.359,-8.131,-5.784,-23.455,25.189,-22.112,-44.87,102.5,-102.5,235.714,-64.286
6126,16,14.464,2.078,131.572,-5.554,-4.439,-25.08,25.189,-22.112,-44.87,92.771,-92.771,235.714,-64.286
6127,16,8.422,-1.188,154.526,-6.857,14.113,-32.885,25.189,-22.112,-44.87,101.876,-101.876,64.286,-235.714
6128,16,4.771,4.794,173.677,-6.857,14.113,-32.885,110.561,-43.598,-49.823,102.5,-102.5,64.286,-235.714
6129,16,3.818,10.497,-176.779,-6.857,14.113,-32.885,40.793,68.82,-19.136,102.5,-102.5,64.286,-235.714
6130,16,11.367,16.074,-162.498,5.781,8.058,-12.286,40.793,68.82,-19.136,42.5,-42.5,64.286,-235.714
6131,16,14.054,17.99,-160.601,1.846,8.492,-4.555,40.793,68.82,-19.136,34.334,-34.334,20.769,-192.198
6132,16,16.233,22.296,-157.028,1.846,8.492,-4.555,0.694,33.501,3.929,35.001,-35.001,22.749,-194.177
6133,16,18.186,26.882,-154.549,1.846,8.492,-4.555,0.536,0.991,0.804,36.49,-36.49,25.727,-197.156
6134,16,20.364,29.018,-150.094,1.181,9.908,-5.701,0.536,0.991,0.804,54.932,-54.932,55.964,-227.392
6135,16,25.64,35.241,-141.817,0.402,8.976,-5.522,0.536,0.991,0.804,57.104,-57.104,52.511,-223.939
6136,16,29.587,38.723,-135.891,0.402,8.976,-5.522,-0.364,-0.995,0.292,62.436,-62.436,63.174,-234.603
6137,16,33.095,41.973,-131.661,0.402,8.976,-5.522,0.124,-0.206,-0.531,62.992,-62.992,64.286,-235.714
6138,16,36.26,43.269,-126.074,-0.452,8.866,-5.294,0.124,-0.206,-0.531,67.258,-67.258,64.286,-235.714
6139,16,44.033,46.742,-114.964,-1.243,8.578,-5.474,0.124,-0.206,-0.531,71.216,-71.216,64.286,-235.714
6140,16,49.682,48.281,-106.894,-1.243,8.578,-5.474,0.914,-1.034,1.263,71.216,-71.216,64.286,-235.714
6141,16,54.177,49.592,-101.444,-1.243,8.578,-5.474,-0.1,0.201,1.416,71.216,-71.216,64.286,-235.714
6142,16,58.298,49.106,-94.406,-1.935,7.907,-5.848,-0.1,0.201,1.416,74.673,-74.673,64.286,-235.714
6143,16,66.365,48.362,-82.266,-2.521,7.222,-5.919,-0.1,0.201,1.416,77.607,-77.607,64.286,-235.714
6144,16,70.984,47.127,-74.807,-2.521,7.222,-5.919,-0.622,0.598,0.88,77.607,-77.607,64.286,-235.714
6145,16,73.164,46.347,-71.208,-2.521,7.222,-5.919,-1.148,0.627,-0.311,77.607,-77.607,64.286,-235.714
6146,16,80.573,42.818,-58.84,-3.063,6.851,-5.854,-1.148,0.627,-0.311,80.313,-80.313,64.286,-235.714
6147,16,81.092,41.231,-55.421,-3.528,6.851,-5.68,-1.148,0.627,-0.311,82.641,-82.641,64.286,-235.714
6148,16,83.366,38.825,-49.715,-3.528,6.93,-5.68,-1.177,0.316,-1.101,82.641,-82.641,64.286,-235.714
6149,16,84.358,37.547,-46.991,-3.528,6.93,-5.68,-0.364,-0.191,-1.168,82.641,-82.641,64.286,-235.714
6150,16,85.43,31.575,-37.224,-4.045,6.85,-5.729,-0.364,-0.191,-1.168,85.224,-85.224,64.286,-235.714
6151,16,83.855,29.746,-34.297,-4.57,6.85,-5.986,-0.364,-0.191,-1.168,87.356,-87.356,63.298,-234.726
6152,16,82.849,26.622,-29.536,-4.57,6.641,-5.986,-0.11,-0.258,-1.464,83.481,-83.481,55.548,-226.977
6153,16,82.25,25.097,-27.178,-4.57,6.641,-5.986,-0.019,-0.273,-1.732,81.599,-81.599,51.784,-223.212
6154,16,79.688,18.799,-18.395,-4.985,6.394,-6.371,-0.019,-0.273,-1.732,84.593,-84.593,53.617,-225.046
6155,16,77.581,17.27,-15.809,-5.302,6.394,-6.852,-0.019,-0.273,-1.732,86.604,-86.604,54.476,-225.904
6156,16,75.161,14.188,-11.346,-5.302,5.977,-6.852,0.086,-0.368,-1.785,83.019,-83.019,53.349,-212.693
6157,16,73.88,12.725,-9.086,-5.302,5.977,-6.852,-0.316,-0.153,-1.976,81.364,-81.364,51.078,-208.342
6158,16,68.485,6.768,-0.36,-5.566,5.425,-7.175,-0.316,-0.153,-1.976,83.409,-83.409,62.934,-199.381
6159,16,66.186,5.479,1.868,-5.855,5.425,-7.303,-0.316,-0.153,-1.976,85.567,-85.567,68.862,-196.31
6160,16,62.695,2.85,6.284,-5.855,4.796,-7.303,-3.699,0.201,-1.699,85.567,-85.567,81.336,-183.837
6161,16,60.904,1.64,8.565,-5.855,4.796,-7.303,-74.007,2.22,9.355,85.567,-85.567,83.153,-182.019
6162,16,57.132,-0.214,12.476,-6.818,3.888,-6.246,-74.007,2.22,9.355,77.159,-77.159,73.237,-139.045
6163,16,51.806,-2.896,18.065,-5.559,3.888,-6.454,-74.007,2.22,9.355,73.473,-73.473,83.847,-138.875
6164,16,48.622,-4.909,21.421,-5.559,2.076,-6.454,-10.346,-1.857,-3.842,73.473,-73.473,110.272,-112.45
6165,16,46.986,-5.843,23.142,-5.559,2.076,-6.454,0.086,0.325,-0.718,73.473,-73.473,110.272,-112.45
6166,16,39.004,-9.073,29.938,-6.829,1.181,-6.503,0.086,0.325,-0.718,80.44,-80.44,124.281,-100.891
6167,16,36.828,-10.76,31.172,-6.432,1.181,-6.289,0.086,0.325,-0.718,75.777,-75.777,118.928,-95.538
6168,16,32.815,-12.621,34.283,-6.432,0.175,-6.289,-0.799,0.536,-0.924,75.777,-75.777,133.309,-81.157
6169,16,30.766,-13.462,35.903,-6.432,0.175,-6.289,1.11,-1.747,-2.206,75.777,-75.777,133.309,-81.157
6170,16,23.154,-15.984,42.466,-6.005,-0.575,-6.338,1.11,-1.747,-2.206,74.254,-74.254,145.247,-71.669
6171,16,20.872,-17.823,44.168,-5.601,-0.575,-6.436,1.11,-1.747,-2.206,73.46,-73.46,147.697,-74.119
6172,16,16.866,-19.252,47.759,-5.601,-0.624,-6.436,-0.397,-6.111,-5.259,75.197,-75.197,151.872,-76.894
6173,16,14.818,-19.892,49.6,-5.601,-0.624,-6.436,-2.708,-56.12,-26.778,77.348,-77.348,156.174,-81.195
6174,16,6.351,-16.334,57.187,-5.582,4.535,-5.74,-2.708,-56.12,-26.778,75.186,-75.186,78.341,-150.765
6175,16,4.286,-15.16,59.402,-5.746,4.535,-6.181,-2.708,-56.12,-26.778,95.083,-95.083,107.56,-179.984
6176,16,0.241,-12.65,63.172,-5.746,5.065,-6.181,0.981,-4.929,-2.517,101.066,-101.066,106.21,-193.79
6177,16,-1.703,-11.312,64.959,-5.746,5.065,-6.181,0.488,-0.675,-1.091,102.364,-102.364,106.21,-193.79
6178,16,-9.235,-5.878,70.085,-5.953,4.874,-6.343,0.488,-0.675,-1.091,102.5,-102.5,108.949,-191.051
6179,16,-11.087,-4.25,73.213,-6.15,4.874,-6.428,0.488,-0.675,-1.091,102.5,-102.5,108.949,-191.051
6180,16,-14.629,-1.298,76.144,-6.15,4.424,-6.428,0.091,-0.359,-0.77,102.5,-102.5,115.371,-184.629
6181,16,-16.361,0.217,77.517,-6.15,4.424,-6.428,-0.057,-0.306,-0.641,102.5,-102.5,115.371,-184.629
6182,16,-22.944,5.873,81.125,-6.196,3.879,-6.476,-0.057,-0.306,-0.641,102.5,-102.5,123.162,-176.838
6183,16,-23.9,7.541,83.869,-3.651,3.879,-6.54,-0.057,-0.306,-0.641,98.253,-98.253,123.162,-176.838
6184,16,-25.747,10.296,86.269,-3.651,3.457,-6.54,2.9,-1.359,-5.675,98.253,-98.253,125.873,-174.127
6185,16,-26.358,11.997,87.393,-3.651,3.457,-6.54,11.781,0.048,-3.737,98.253,-98.253,123.585,-176.415
6186,16,-18.254,16.139,90.637,7.88,4.132,-5.862,11.781,0.048,-3.737,42.5,-42.5,110.713,-189.287
6187,16,-13.944,19.697,92.451,7.88,4.132,-4.235,11.781,0.048,-3.737,23.579,-23.579,67.407,-156.909
6188,16,-11.243,21.076,94.052,7.133,5.185,-4.235,11.609,6.733,-11.226,22.659,-22.659,48.707,-171.835
6189,16,-6.896,24.335,95.325,7.133,5.185,-4.235,9.81,31.525,-36.185,21.297,-21.297,41.561,-173.625
6190,16,0.076,22.813,97.068,6.554,-0.508,-1.439,9.81,31.525,-36.185,-14.13,14.13,52.597,-20.881
6191,16,2.79,23.177,97.528,6.554,-0.508,-0.177,9.81,31.525,-36.185,-30.707,30.707,20.582,13.409
6192,16,5.378,21.696,97.561,6.017,-1.476,-0.177,-2.345,3.555,-5.857,-31.269,31.269,35.364,30.441
6193,16,7.763,21.836,97.818,6.017,-1.476,-0.177,-1.694,0.775,-5.326,-31.677,31.677,34.293,31.003
6194,16,10.901,21.586,97.943,5.763,-0.375,-0.004,-1.694,0.775,-5.326,-34.45,34.45,13.259,21.058
6195,16,15.317,21.471,98.102,5.763,-0.375,0.176,-1.694,0.775,-5.326,-37.6,37.6,6.883,27.285
6196,16,17.088,21.116,97.961,4.797,0.522,0.176,-2.445,-0.751,-7.771,-37.984,37.984,-6.299,15.638
6197,16,19.194,21.865,98.279,4.797,0.522,0.176,-6.503,-0.933,-10.647,-38.061,38.061,-7.606,14.636
6198,16,19.221,22.283,98.223,0.402,0.709,0.545,-6.503,-0.933,-10.647,-22.019,22.019,-19.75,20.292
6199,16,18.409,22.576,98.197,0.402,0.709,-0.003,-6.503,-0.933,-10.647,-14.917,14.917,-5.895,5.742
6200,16,17.261,22.755,98.454,-2.835,-0.29,-0.003,-6.47,0.885,-6.661,1.513,-1.513,8.7,19.341
6201,16,15.872,22.228,98.323,-2.835,-0.29,-0.003,-5.651,2.359,-9.79,1.541,-1.541,9.552,20.08
6202,16,14.049,22.098,98.429,-3.132,-0.121,0.039,-5.651,2.359,-9.79,3.166,-3.166,6.874,18.493
6203,16,11.425,22.025,98.616,-3.132,-0.121,0.141,-5.651,2.359,-9.79,3.517,-3.517,5.056,20.671
6204,16,10.243,22.481,98.854,-2.902,0.25,0.141,-1.785,1.589,-10.489,3.405,-3.405,0.116,13.869
6205,16,8.948,22.168,98.782,-2.902,0.25,0.141,0.268,0.024,-9.987,4.204,-4.204,0.896,14.054
6206,16,7.234,22.219,98.856,-3.004,0.181,0.164,0.268,0.024,-9.987,5.587,-5.587,1.874,15.005
6207,16,4.654,22.242,98.907,-3.004,0.181,0.319,0.268,0.024,-9.987,5.337,-5.337,-1.245,18.149
6208,16,3.45,22.618,98.996,-2.986,0.034,0.319,0.335,1.024,-10.479,6.15,-6.15,0.96,19.119
6209,16,2.055,22.179,98.866,-2.986,0.034,0.319,1.043,1.201,-9.991,7.059,-7.059,2.01,19.346
