packet_timestamp,statemachine,angle_roll,angle_pitch,angle_yaw,gyro_x,gyro_y,gyro_z,acc_x,acc_y,acc_z,rudder1,rudder2,rudder3,rudder4
9074,1,-0.135,28.485,11.288,-0.231,-3.132,-0.101,-2.259,92.014,-16.729,2.436,-2.436,20.752,15.917
9075,1,-0.234,25.977,11.363,-0.231,-4.819,-0.101,-2.259,92.014,-16.729,2.459,-2.459,48.385,43.66
9076,1,-0.325,23.494,11.315,-0.231,-4.819,-0.101,2.881,72.605,-22.902,2.49,-2.49,51.905,47.235
9077,1,-0.411,20.873,11.137,-0.037,-5.081,0.319,2.881,72.605,-22.902,-3.684,3.684,48.897,65.217
9078,1,-0.501,18.273,11.081,-0.037,-5.081,0.319,-0.589,54.134,-21.557,-3.633,3.633,52.627,68.917
9079,1,-0.525,16.425,11.161,-0.08,-3.782,-0.103,-0.589,54.134,-21.557,1.881,-1.881,47.281,42.41
9080,1,-0.609,14.587,11.181,-0.08,-3.782,-0.103,0.675,44.741,-18.174,1.935,-1.935,49.933,45.011
9081,1,-0.668,13.987,11.229,-0.019,-1.621,0.047,0.675,44.741,-18.174,-0.213,0.213,16.178,18.754
9082,1,-0.554,13.37,11.387,-0.019,-1.621,0.047,0.546,3.134,3.876,-0.253,0.253,17.095,19.602
9083,1,-0.311,12.865,11.725,0.669,-1.436,-0.148,0.546,3.134,3.876,-1.358,1.358,20.085,12.759
9084,1,-0.066,12.303,12.303,0.669,-1.436,-0.148,-0.053,1.876,4.656,-1.464,1.464,20.919,13.528
9085,1,0.234,11.659,13.041,0.929,-1.487,-0.526,-0.053,1.876,4.656,1.825,-1.825,32.047,5.701
9086,1,0.641,10.974,13.826,0.929,-1.487,-0.526,-0.029,2.105,3.89,1.626,-1.626,33.036,6.669
9087,1,1.189,10.464,14.646,1.42,-1.171,-0.641,-0.029,2.105,3.89,0.334,-0.334,32.119,0.006
9088,1,1.831,9.929,15.482,1.42,-1.171,-0.641,0.086,2.287,3.45,-0.002,0.002,32.852,0.799
9089,1,2.596,9.562,16.346,1.832,-0.88,-0.718,0.086,2.287,3.45,-1.509,1.509,31.095,-4.705
9090,1,3.451,9.174,17.193,1.832,-0.88,-0.718,-0.081,2.192,2.684,-1.974,1.974,31.573,-4.078
9091,1,4.434,9.006,18.043,2.249,-0.503,-0.703,-0.081,2.192,2.684,-4.769,4.769,25.983,-8.786
9092,1,5.516,8.814,18.841,2.249,-0.503,-0.703,-0.019,2.273,2.359,-5.356,5.356,26.161,-8.423
9093,1,6.747,8.879,19.61,2.719,-0.078,-0.553,-0.019,2.273,2.359,-10.221,10.221,16.194,-10.791
9094,1,8.076,8.926,20.33,2.719,-0.078,-0.553,0.1,2.153,1.847,-10.909,10.909,16.074,-10.815
9095,1,9.55,9.16,21.021,3.168,0.214,-0.402,0.1,2.153,1.847,-15.77,15.77,7.816,-11.568
9096,1,11.128,9.375,21.677,3.168,0.214,-0.402,0.321,2.053,1.263,-16.536,16.536,7.556,-11.922
9097,1,12.852,9.708,22.312,3.622,0.377,-0.282,0.321,2.053,1.263,-21.088,21.088,1.915,-11.875
9098,1,14.668,10.019,22.931,3.622,0.377,-0.282,0.388,2.082,0.77,-21.909,21.909,1.656,-12.483
9099,1,16.599,10.399,23.546,3.99,0.46,-0.228,0.388,2.082,0.77,-25.26,25.26,-1.136,-13.105
9100,1,18.713,11.159,24.227,3.99,0.46,-0.228,0.392,2.024,0.435,-25.996,25.996,-1.514,-14.772
9101,1,20.829,11.531,24.837,4.31,0.447,-0.196,0.392,2.024,0.435,-26.869,26.869,-2.174,-14.698
9102,1,22.99,11.866,25.43,4.31,0.447,-0.196,0.33,2.038,0.105,-26.639,26.639,-2.123,-15.568
9103,1,25.195,12.17,26.012,4.465,0.336,-0.182,0.33,2.038,0.105,-26.568,26.568,-0.734,-14.463
9104,1,27.381,12.44,26.559,4.465,0.336,-0.182,0.268,2.062,-0.134,-26.32,26.32,-0.528,-15.25
9105,1,29.548,12.674,27.077,4.417,0.19,-0.137,0.268,2.062,-0.134,-26.633,26.633,0.702,-12.766
9106,1,31.639,12.879,27.546,4.417,0.19,-0.137,0.22,2.072,-0.254,-26.394,26.394,1.003,-13.422
9107,1,33.653,13.059,27.956,4.183,0.023,-0.038,0.22,2.072,-0.254,-27.401,27.401,1.228,-9.17
9108,1,35.584,13.214,28.31,4.183,0.023,-0.038,0.191,2.053,-0.316,-27.181,27.181,1.569,-9.706
9109,1,37.433,13.354,28.601,3.937,-0.151,0.071,0.191,2.053,-0.316,-28.028,28.028,1.673,-4.959
9110,1,39.198,13.481,28.839,3.937,-0.151,0.071,0.187,2.034,-0.517,-27.826,27.826,2.028,-5.412
9111,1,40.883,13.599,29.017,3.683,-0.305,0.166,0.187,2.034,-0.517,-27.543,27.543,2.205,-1.274
9112,1,42.475,13.706,29.147,3.683,-0.305,0.166,0.158,2.019,-0.469,-27.36,27.36,2.555,-1.658
9113,1,43.978,13.802,29.221,3.401,-0.458,0.239,0.158,2.019,-0.469,-26.687,26.687,3.277,1.996
9114,1,45.369,13.892,29.252,3.401,-0.458,0.239,0.096,2.034,-0.431,-26.525,26.525,3.603,1.674
9115,1,46.652,13.974,29.24,3.043,-0.59,0.284,0.096,2.034,-0.431,-25.158,25.158,4.655,4.416
9116,1,47.803,14.056,29.198,3.043,-0.59,0.284,-0.014,2.072,-0.263,-25.014,25.014,4.948,4.134
9117,1,48.822,14.132,29.129,2.606,-0.679,0.305,-0.014,2.072,-0.263,-22.946,22.946,5.974,5.644
9118,1,49.701,14.215,29.049,2.606,-0.679,0.305,-0.115,2.101,-0.048,-22.816,22.816,6.227,5.377
9119,1,50.44,14.295,28.958,2.107,-0.712,0.3,-0.115,2.101,-0.048,-20.148,20.148,7.035,5.484
9120,1,51.029,14.393,28.87,2.107,-0.712,0.3,-0.187,2.12,0.105,-20.018,20.018,7.256,5.186
9121,1,51.468,14.505,28.783,1.571,-0.691,0.288,-0.187,2.12,0.105,-17.043,17.043,7.496,4.244
9122,1,51.757,14.632,28.713,1.571,-0.691,0.288,-0.239,2.139,0.297,-16.9,16.9,7.695,3.872
9123,1,51.891,14.773,28.655,1.006,-0.637,0.271,-0.239,2.139,0.297,-13.712,13.712,7.527,2.264
9124,1,51.887,14.93,28.619,1.006,-0.637,0.271,-0.278,2.149,0.44,-13.557,13.557,7.698,1.816
9125,1,51.742,15.104,28.604,0.48,-0.561,0.241,-0.278,2.149,0.44,-10.396,10.396,7.52,-0.503
9126,1,51.469,15.287,28.616,0.48,-0.561,0.241,-0.345,2.206,0.536,-10.236,10.236,7.652,-1.014
9127,1,51.067,15.482,28.657,-0.013,-0.477,0.199,-0.345,2.206,0.536,-7.089,7.089,7.595,-3.793
9128,1,50.534,15.687,28.723,-0.013,-0.477,0.199,-0.412,2.211,0.421,-6.931,6.931,7.67,-4.352
9129,1,49.869,15.897,28.82,-0.526,-0.403,0.146,-0.412,2.211,0.421,-3.549,3.549,7.968,-7.311
9130,1,49.067,16.106,28.946,-0.526,-0.403,0.146,-0.469,2.249,0.258,-3.418,3.418,7.946,-7.858
9131,1,48.133,16.315,29.1,-1.034,-0.333,0.085,-0.469,2.249,0.258,-0.004,0.004,8.397,-10.899
9132,1,47.083,16.52,29.283,-1.034,-0.333,0.085,-0.502,2.273,-0.01,0.087,-0.087,8.258,-11.401
9133,1,45.922,16.718,29.497,-1.484,-0.275,0.015,-0.502,2.273,-0.01,3.28,-3.28,8.978,-14.462
9134,1,44.649,16.904,29.737,-1.484,-0.275,0.015,-0.574,2.316,-0.254,3.313,-3.313,8.705,-14.869
9135,1,43.273,17.076,30,-1.9,-0.245,-0.066,-0.574,2.316,-0.254,6.407,-6.407,9.959,-17.661
9136,1,41.831,17.229,30.29,-1.9,-0.245,-0.066,-0.574,2.33,-0.502,6.372,-6.372,9.555,-17.926
9137,1,40.322,17.358,30.605,-2.173,-0.246,-0.152,-0.574,2.33,-0.502,8.74,-8.74,11.26,-20.238
9138,1,38.797,17.46,30.939,-2.173,-0.246,-0.152,-0.55,2.311,-0.842,8.633,-8.633,10.753,-20.315
9139,1,37.256,17.538,31.294,-2.268,-0.268,-0.233,-0.55,2.311,-0.842,9.981,-9.981,12.555,-22.009
9140,1,35.761,17.586,31.672,-2.268,-0.268,-0.233,-0.593,2.287,-1.014,9.819,-9.819,12.008,-21.908
9141,1,34.313,17.607,32.076,-2.145,-0.303,-0.321,-0.593,2.287,-1.014,10.117,-10.117,14.134,-23.426
9142,1,32.939,17.602,32.513,-2.145,-0.303,-0.321,-0.641,2.278,-1.148,9.923,-9.923,13.608,-23.176
9143,1,31.637,17.572,32.983,-1.936,-0.313,-0.424,-0.641,2.278,-1.148,9.963,-9.963,15.843,-25.299
9144,1,30.44,17.526,33.494,-1.936,-0.313,-0.424,-0.636,2.244,-1.335,9.764,-9.764,15.384,-24.96
9145,1,29.345,17.458,34.039,-1.631,-0.311,-0.529,-0.636,2.244,-1.335,9.361,-9.361,17.575,-27.251
9146,1,28.36,17.386,34.626,-1.631,-0.311,-0.529,-0.617,2.244,-1.536,9.177,-9.177,17.209,-26.88
9147,1,27.48,17.305,35.247,-1.304,-0.279,-0.619,-0.617,2.244,-1.536,8.487,-8.487,18.67,-29.202
9148,1,26.715,17.219,35.907,-1.304,-0.279,-0.619,-0.589,2.283,-1.938,8.33,-8.33,18.401,-28.84
9149,1,26.061,17.135,36.597,-0.963,-0.223,-0.695,-0.589,2.283,-1.938,7.432,-7.432,19.262,-31.205
9150,1,25.517,17.054,37.319,-0.963,-0.223,-0.695,-0.574,2.278,-2.235,7.311,-7.311,19.083,-30.901
9151,1,25.081,16.977,38.068,-0.626,-0.156,-0.75,-0.574,2.278,-2.235,6.218,-6.218,19.371,-32.975
9152,1,24.75,16.908,38.843,-0.626,-0.156,-0.75,-0.565,2.263,-2.455,6.136,-6.136,19.272,-32.744
9153,1,24.52,16.846,39.638,-0.3,-0.078,-0.788,-0.565,2.263,-2.455,4.921,-4.921,19.055,-34.622
9154,1,24.386,16.796,40.45,-0.3,-0.078,-0.788,-0.517,2.254,-2.603,4.877,-4.877,19.022,-34.478
9155,1,24.348,16.761,41.275,0.002,0.013,-0.805,-0.517,2.254,-2.603,3.554,-3.554,18.15,-36.108
9156,1,24.395,16.738,42.113,0.002,0.013,-0.805,-0.498,2.225,-2.799,3.548,-3.548,18.172,-36.063
9157,1,24.527,16.73,42.958,0.282,0.098,-0.799,-0.498,2.225,-2.799,2.081,-2.081,16.841,-37.129
9158,1,24.724,16.742,43.803,0.282,0.098,-0.799,-0.464,2.22,-3.168,2.114,-2.114,16.905,-37.196
9159,1,24.986,16.765,44.653,0.497,0.195,-0.774,-0.464,2.22,-3.168,0.779,-0.779,14.991,-38.074
9160,1,25.299,16.811,45.498,0.497,0.195,-0.774,-0.44,2.22,-3.464,0.846,-0.846,15.088,-38.245
9161,1,25.667,16.874,46.342,0.672,0.295,-0.728,-0.44,2.22,-3.464,-0.53,0.53,12.599,-38.724
9162,1,26.057,16.957,47.179,0.672,0.295,-0.728,-0.431,2.206,-3.651,-0.431,0.431,12.72,-38.999
9163,1,26.469,17.053,48.008,0.751,0.381,-0.672,-0.431,2.206,-3.651,-1.407,1.407,10.232,-39.159
9164,1,26.868,17.165,48.83,0.751,0.381,-0.672,-0.44,2.201,-3.809,-1.288,1.288,10.359,-39.509
9165,1,27.251,17.291,49.64,0.707,0.447,-0.608,-0.44,2.201,-3.809,-1.742,1.742,7.943,-39.235
9166,1,27.582,17.427,50.436,0.707,0.447,-0.608,-0.44,2.22,-4.067,-1.616,1.616,8.052,-39.633
9167,1,27.855,17.571,51.216,0.517,0.492,-0.544,-0.44,2.22,-4.067,-1.337,1.337,5.906,-39.08
9168,1,28.019,17.727,51.97,0.517,0.492,-0.544,-0.479,2.225,-4.383,-1.22,1.22,5.958,-39.494
9169,1,28.07,17.89,52.674,0.138,0.503,-0.473,-0.479,2.225,-4.383,-0.117,0.117,4.03,-38.273
9170,1,27.748,18.061,53.324,0.138,0.503,-0.473,-0.44,0.646,-4.938,-0.064,0.064,3.889,-38.623
9171,1,27.052,18.236,53.914,-1.158,0.484,-0.36,-0.44,0.646,-4.938,4.998,-4.998,1.037,-35.796
9172,1,25.97,18.397,54.445,-1.158,0.484,-0.36,-0.574,0.019,-5.326,4.913,-4.913,0.562,-35.932
9173,1,24.502,18.545,54.915,-2.508,0.411,-0.254,-0.574,0.019,-5.326,10.164,-10.164,-1.722,-32.227
9174,1,22.703,18.674,55.336,-2.508,0.411,-0.254,-0.679,0.057,-5.948,9.919,-9.919,-2.536,-32.06
9175,1,20.569,18.783,55.707,-3.673,0.322,-0.175,-0.679,0.057,-5.948,14.433,-14.433,-4.202,-28.473
9176,1,15.807,18.884,57.782,-3.673,0.322,-0.175,-36.975,-67.38,-55.938,15.602,-15.602,-6.341,-27.267
9177,1,8.438,19.229,61.463,-15.114,2.336,-5.625,-36.975,-67.38,-55.938,102.015,-102.015,97.616,-190.444
9178,1,-3.761,22.615,67.138,-15.114,2.336,-5.625,24.275,-103.584,-100.689,99.256,-99.256,87.157,-189.867
9179,1,-20.838,30.147,73.4,-34.891,11.507,-12.73,24.275,-103.584,-100.689,105,-105,64.286,-235.714
9180,1,-34.477,30.697,73.725,-34.891,11.507,-12.73,58.7,-34.927,11.374,105,-105,64.286,-235.714
9181,1,-43.455,22.929,71.182,-13.808,-7.591,11.016,58.7,-34.927,11.374,-45,45,-64.286,235.714
9182,1,-54.659,13.956,66.177,-13.808,-7.591,11.016,0.608,-4.067,-1.302,-45,45,-64.286,235.714
9183,1,-67.209,2.775,59.74,-20.417,0.459,21.914,0.608,-4.067,-1.302,-45,45,-152.57,147.43
9184,1,-77.34,-8.598,53.873,-20.417,0.459,21.914,-4.02,-0.995,0.871,-45,45,-150.833,149.167
9185,1,-85.294,-19.983,47.736,-16.831,7.253,20.761,-4.02,-0.995,0.871,-45,45,-235.714,64.286
9186,1,-91.108,-31.389,41.158,-16.831,7.253,20.761,-3.369,-1.512,-0.828,-45,45,-235.714,64.286
9187,1,-94.273,-42.578,33.072,-14.45,12.072,18.699,-3.369,-1.512,-0.828,-45,45,-235.714,64.286
9188,1,-93.451,-53.192,22.184,-14.45,12.072,18.699,-2.713,-2.292,-1.062,-45,45,-235.714,64.286
9189,1,-85.65,-62.366,5.14,-12.147,15.597,15.942,-2.713,-2.292,-1.062,-45,45,-235.714,64.286
9190,1,-66.855,-68.255,-21.982,-12.147,15.597,15.942,0.048,-1.957,-0.689,-45,45,-235.714,64.286
9191,1,-40.612,-68.113,-55.872,-9.838,17.612,12.824,0.048,-1.957,-0.689,-45,45,-235.714,64.286
9192,1,-21.65,-62.391,-81.825,-9.838,17.612,12.824,0.656,-0.278,0.024,-45,45,-235.714,64.286
9193,1,-12.472,-53.767,-97.477,-7.797,18.609,9.776,0.656,-0.278,0.024,-45,45,-235.714,64.286
9194,1,-8.486,-43.994,-107.472,-7.797,18.609,9.776,0.402,1.282,-0.431,-45,45,-235.714,64.286
9195,1,-7.196,-33.671,-114.391,-5.844,19.379,7.381,0.402,1.282,-0.431,-45,45,-235.714,64.286
9196,1,-7.124,-23.009,-119.926,-5.844,19.379,7.381,-1.014,0.952,-1.311,-45,45,-235.714,64.286
9197,1,-7.81,-12.088,-124.632,-4.106,20.338,5.911,-1.014,0.952,-1.311,-45.206,45.206,-225.602,54.173
9198,1,-8.882,-1.001,-129.153,-4.106,20.338,5.911,-1.168,-0.115,-0.703,-46.69,46.69,-229.195,57.766
9199,1,-10.346,10.234,-133.693,-2.23,21.231,5.203,-1.168,-0.115,-0.703,-48.766,48.766,-215.888,44.459
9200,1,-12.32,21.461,-138.689,-2.23,21.231,5.203,-0.842,-0.445,-0.464,-50.701,50.701,-221.976,50.547
9201,1,-15.098,32.643,-144.492,-0.431,21.801,4.88,-0.842,-0.445,-0.464,-58.447,58.447,-223.216,51.788
9202,1,-19.39,43.501,-151.925,-0.431,21.801,4.88,-0.598,-0.713,-0.038,-62.843,62.843,-235.714,64.286
9203,1,-26.474,53.79,-162.312,1.21,21.99,4.806,-0.598,-0.713,-0.038,-71.051,71.051,-235.714,64.286
9204,1,-39.168,62.66,-178.519,1.21,21.99,4.806,-0.244,-0.823,0.211,-71.051,71.051,-235.714,64.286
9205,1,-61.506,68.544,155.358,2.702,21.724,4.967,-0.244,-0.823,0.211,-78.508,78.508,-235.714,64.286
9206,1,-92.111,68.464,120.501,2.702,21.724,4.967,0.124,-0.435,0.11,-78.508,78.508,-235.714,64.286
9207,1,-114.817,62.009,92.935,4.171,21.086,5.273,0.124,-0.435,0.11,-85.853,85.853,-235.714,64.286
9208,1,-125.773,52.578,76.539,4.171,21.086,5.273,0.134,0.167,-0.311,-85.853,85.853,-235.714,64.286
9209,1,-130.279,42.161,65.855,5.725,20.225,5.759,0.134,0.167,-0.311,-93.624,93.624,-235.714,64.286
9210,1,-131.118,31.458,57.966,5.725,20.225,5.759,-0.215,0.861,-0.804,-93.624,93.624,-235.714,64.286
9211,1,-129.606,20.863,51.292,7.486,19.146,6.581,-0.215,0.861,-0.804,-102.428,102.428,-235.714,64.286
9212,1,-126.208,10.494,45.186,7.486,19.146,6.581,-1.034,0.962,-1.507,-102.428,102.428,-235.714,64.286
9213,1,-121.109,0.563,39.038,9.523,17.825,7.815,-1.034,0.962,-1.507,-105,105,-235.714,64.286
9214,1,-114.34,-8.855,32.588,9.523,17.825,7.815,-1.603,0.77,-2.254,-105,105,-235.714,64.286
9215,1,-105.722,-17.515,25.373,11.651,16.136,9.36,-1.603,0.77,-2.254,-105,105,-235.714,64.286
9216,1,-95.253,-25.233,17.253,11.651,16.136,9.36,-2.11,0.321,-2.541,-105,105,-235.714,64.286
9217,1,-82.688,-31.695,7.883,13.568,13.726,10.976,-2.11,0.321,-2.541,-105,105,-235.714,64.286
9218,1,-68.249,-36.713,-2.652,13.568,13.726,10.976,-2.321,-0.129,-2.163,-105,105,-235.714,64.286
9219,1,-52.065,-40.013,-14.227,15.161,10.535,12.448,-2.321,-0.129,-2.163,-105,105,-235.714,64.286
9220,1,-34.989,-41.607,-26.244,15.161,10.535,12.448,-2.464,-0.651,-1.67,-105,105,-235.714,64.286
9221,1,-17.615,-41.534,-38.07,16.168,6.698,13.532,-2.464,-0.651,-1.67,-105,105,-217.12,82.88
9222,1,-0.825,-40.056,-49.191,16.168,6.698,13.532,-2.464,-1.158,-1.105,-105,105,-217.12,82.88
9223,1,15.108,-37.427,-59.291,16.433,2.609,14.153,-2.464,-1.158,-1.105,-105,105,-158.698,141.302
9224,1,26.533,-33.671,-68.121,16.433,2.609,14.153,-82.587,-13.781,-23.868,-105,105,-158.698,141.302
9225,1,33.814,-29.603,-76.144,4.902,-0.128,13.843,-82.587,-13.781,-23.868,-105,105,-119.602,180.398
9226,1,38.607,-24.703,-81.829,4.902,-0.128,13.843,-39.281,10.647,2.412,-105,105,-119.602,180.398
9227,1,39.876,-20.851,-85.814,-0.963,0.849,9.242,-39.281,10.647,2.412,-80.185,80.185,-133.557,166.443
9228,1,39.161,-16.881,-90.067,-0.963,0.849,11.328,5.259,1.45,-1.249,-80.185,80.185,-133.557,166.443
9229,1,37.288,-12.084,-94.591,-5.666,1.475,11.328,5.259,1.45,-1.249,-56.669,56.669,-146.213,153.787
9230,1,35.175,-7.02,-98.806,-5.666,1.475,10.983,-0.249,-0.254,-0.933,-56.669,56.669,-151.302,148.698
9231,1,32.524,-2.074,-102.883,-5.612,2.853,10.983,-0.249,-0.254,-0.933,-56.941,56.941,-176.243,123.757
9232,1,29.657,2.396,-106.904,-5.612,2.853,9.817,-3.34,6.192,-6.025,-56.941,56.941,-181.32,118.68
9233,1,26.642,6.456,-110.858,-5.095,2.611,9.817,-3.34,6.192,-6.025,-59.524,59.524,-182.775,117.225
9234,1,22.701,8.185,-115.711,-5.095,2.611,9.476,1.306,15.863,-4.689,-59.524,59.524,-184.908,115.092
9235,1,19.152,9.26,-120.882,-5.022,-1.943,9.476,1.306,15.863,-4.689,-59.469,59.469,-121.244,178.756
9236,1,15.544,10.656,-125.974,-5.022,-1.943,9.536,1.809,6.924,-1.627,-57.664,57.664,-123.145,176.855
9237,1,11.578,11.826,-131.11,-5.302,-0.601,9.536,1.809,6.924,-1.627,-54.283,54.283,-143.972,156.028
9238,1,7.546,12.775,-136.303,-5.302,-0.601,9.536,0.833,0.751,-1.33,-52.268,52.268,-145.347,154.653
9239,1,3.251,13.577,-141.58,-5.486,0.038,9.642,0.833,0.751,-1.33,-49.198,49.198,-155.649,144.351
9240,1,-1.047,14.177,-146.879,-5.486,0.038,9.642,-0.316,-0.211,-0.593,-47.044,47.044,-156.514,143.486
9241,1,-5.517,14.623,-152.307,-5.534,0.844,9.793,-0.316,-0.211,-0.593,-45,45,-168.627,131.373
9242,1,-9.958,14.887,-157.742,-5.534,0.844,9.793,4.197,0.278,-2.876,-45,45,-168.928,131.071
9243,1,-13.235,14.797,-163.121,-3.404,1.3,9.68,4.197,0.278,-2.876,-51.342,51.342,-175.236,124.764
9244,1,-16.45,14.203,-168.478,-3.404,1.3,9.68,33.075,3.575,3.23,-49.736,49.736,-174.324,125.676
9245,1,-15.489,12.898,-173.555,4.059,0.047,9.56,33.075,3.575,3.23,-87.539,87.539,-154.659,145.341
9246,1,-14.608,11.564,-178.874,4.059,0.047,9.56,16.36,0.546,0.703,-87.987,87.987,-152.832,147.168
9247,1,-14.053,10.185,175.457,3.417,-0.219,9.977,16.36,0.546,0.703,-85.06,85.06,-147.121,152.879
9248,1,-13.368,8.724,169.746,3.417,-0.219,9.977,0.938,-3.173,-2.771,-85.401,85.401,-145.092,154.908
9249,1,-11.901,7.284,164.299,4.516,-0.631,9.554,0.938,-3.173,-2.771,-91.621,91.621,-137.195,162.805
9250,1,-10.405,6.444,158.795,4.516,-0.631,9.554,6.245,-19.423,-19.026,-92.366,92.366,-135.995,164.005
9251,1,-8.316,6.143,153.49,5.121,1.335,8.944,6.245,-19.423,-19.026,-96.436,96.436,-163.616,136.384
9252,1,-6.361,7.576,148.071,5.121,1.335,8.944,2.675,-21.284,-14.111,-97.42,97.42,-165.626,134.374
9253,1,-4.102,10.408,142.709,5.493,5.247,7.594,2.675,-21.284,-14.111,-100.411,100.411,-225.545,74.455
9254,1,-2.13,13.325,137.386,5.493,5.247,7.594,-2.163,-4.445,-4.359,-101.396,101.396,-229.712,70.288
9255,1,-0.08,16.446,132.156,6.074,5.305,7.471,-2.163,-4.445,-4.359,-105,105,-234.995,65.005
9256,1,1.989,19.125,127.024,6.074,5.305,7.471,-8.029,1.895,-11.81,-105,105,-235.714,64.286
9257,1,4.223,21.418,121.98,7.025,3.453,7.121,-8.029,1.895,-11.81,-105,105,-215.589,84.411
9258,1,7.063,22.604,117.491,7.025,3.453,7.121,-21.854,6.111,-18.504,-105,105,-217.189,82.811
9259,1,11.034,22.852,115.566,8.18,-0.17,4.156,-21.854,6.111,-18.504,-78.82,78.82,-113.219,82.06
9260,1,14.806,23.233,114.275,8.18,-0.17,4.156,-7.47,4.264,-9.197,-77.646,77.646,-111.124,79.461
9261,1,15.535,21.763,114.436,1.275,-2.632,0.17,-7.47,4.264,-9.197,-12.442,12.442,25.141,17.701
9262,1,16.044,20.569,114.625,1.275,-2.632,0.17,-1.756,1.091,-1.924,-12.969,12.969,26.219,19.982
9263,1,15.742,19.266,114.88,-0.59,-2.296,0.009,-1.756,1.091,-1.924,-1.957,1.957,26.181,13.935
9264,1,15.296,18.182,115.127,-0.59,-2.296,0.009,-1.627,1.469,-4.005,-2.164,2.164,26.741,16.306
9265,1,14.864,17.359,115.624,-0.934,-1.424,0.025,-1.627,1.469,-4.005,-0.754,0.754,14.319,6.055
9266,1,14.147,16.947,115.971,-0.934,-1.424,0.025,-2.68,0.636,-9.853,-0.627,0.627,14.377,7.073
9267,1,13.36,17.04,116.354,-1.517,0.164,0.284,-2.68,0.636,-9.853,-0.657,0.657,-15.151,-9.102
