packet_timestamp,statemachine,angle_roll,angle_pitch,angle_yaw,gyro_x,gyro_y,gyro_z,acc_x,acc_y,acc_z,rudder1,rudder2,rudder3,rudder4
5256,16,-1.278,34.224,-5.076,-0.098,-0.262,0.1,-0.914,148.483,-5.833,-3.458,3.458,9.813,14.174
5257,16,-1.272,34.358,-5,-0.126,-0.258,-0.239,5.173,118.868,-5.833,0.907,-0.907,18.02,5.461
5258,16,-1.848,34.519,-4.765,-0.126,-0.258,-0.239,5.173,118.868,-5.833,0.895,-0.895,17.8,5.264
5259,16,-2.005,33.226,-3.99,-0.994,-2.649,-0.402,2.005,61.633,-22.246,7.797,-7.797,58.154,36.883
5260,16,-2.679,32.51,-3.346,-0.994,-2.649,-0.402,2.005,61.633,-5.455,8.281,-8.281,59.455,37.615
5261,16,-1.837,29.308,-2.422,1.992,-9.504,-1.857,3.627,0.971,-5.455,11.118,-11.118,133,38.428
5262,16,0.875,21.35,0.204,1.992,-9.504,-1.857,3.627,0.971,-5.455,10.14,-10.14,132.452,38.977
5263,16,1.735,15.921,1.652,2.713,-9.662,-2.084,0.962,1.493,4.881,7.06,-7.06,135.867,35.561
5264,16,3.212,13.132,3.153,2.713,-9.662,-2.084,0.962,1.493,9.752,5.147,-5.147,133.74,37.688
5265,16,3.914,7.905,3.786,3.169,-9.065,-2.272,1.053,0.986,9.752,3.685,-3.685,136.392,35.037
5266,16,6.841,0.148,5.73,3.169,-9.065,-2.272,1.053,0.986,9.752,0.575,-0.575,132.313,39.115
5267,16,7.336,-4.359,7.118,3.053,-7.961,-2.55,1.096,0.967,11.489,-0.888,0.888,131.677,39.752
5268,16,8.648,-6.754,8.57,3.053,-7.961,-2.55,1.096,0.967,10.714,-4.499,4.499,126.764,44.665
5269,16,8.87,-10.839,9.172,2.493,-6.706,-2.795,0.89,0.967,10.714,-1.364,1.364,128.795,42.634
5270,16,10.076,-16.636,11.355,2.493,-6.706,-2.795,0.89,0.967,10.714,-5.617,5.617,122.636,48.792
5271,16,9.744,-19.753,13.089,1.435,-5.451,-2.951,0.818,1.273,10.523,-3.434,3.434,119.02,52.408
5272,16,9.707,-21.467,14.912,1.435,-5.451,-2.951,0.818,1.273,10.47,-5.179,5.179,116.409,55.019
5273,16,8.943,-24.041,15.766,-0.075,-4.199,-2.917,0.651,1.479,10.47,1.309,-1.309,114.361,57.068
5274,16,6.242,-27.384,18.91,-0.075,-4.199,-2.917,0.651,1.479,10.47,2.8,-2.8,116.166,55.262
5275,16,4.76,-29.018,20.783,-1.59,-3.046,-2.778,0.785,1.665,9.924,17.374,-17.374,111.014,33.146
5276,16,2.597,-29.676,22.904,-1.59,-3.046,-2.778,0.785,1.665,9.609,26.739,-26.739,124.095,20.065
5277,16,0.936,-30.808,23.973,-2.727,-1.974,-2.55,0.837,2.053,9.609,37.231,-37.231,113.808,-0.267
5278,16,-5.025,-31.398,27.54,-2.727,-1.974,-2.55,0.837,2.053,9.609,52.806,-52.806,135.705,-22.164
5279,16,-6.953,-31.618,28.988,-3.724,-0.981,-2.246,0.483,2.062,10.13,78.191,-78.191,148.727,-63.552
5280,16,-10.219,-31.145,30.754,-3.724,-0.981,-2.246,0.483,2.062,9.685,78.191,-78.191,148.727,-63.552
5281,16,-12.051,-30.98,31.562,-4.265,0.012,-2.058,0.632,2.015,9.685,77.226,-77.226,129.856,-73.048
5282,16,-18.727,-29.098,34.042,-4.265,0.012,-2.058,0.632,2.015,9.685,66.78,-66.78,111.464,-54.656
5283,16,-20.257,-28.119,34.732,-4.237,0.856,-1.924,0.354,1.991,8.709,68.296,-68.296,102.429,-69.757
5284,16,-23.37,-26.84,35.725,-4.237,0.856,-1.924,0.354,1.991,8.283,69.986,-69.986,105.809,-73.137
5285,16,-24.647,-25.629,35.953,-4.12,1.598,-1.895,0.349,1.943,8.283,69.739,-69.739,94.723,-83.235
5286,16,-29.931,-22.205,36.826,-4.12,1.598,-1.895,0.349,1.943,8.283,70.19,-70.19,95.625,-84.136
5287,16,-30.788,-20.412,36.829,-3.622,2.168,-1.865,0.44,2.134,8.063,67.579,-67.579,86.042,-90.837
5288,16,-33.152,-18.792,37.128,-3.622,2.168,-1.865,0.44,2.134,8.958,67.585,-67.585,86.053,-90.848
5289,16,-33.714,-16.902,36.744,-3.081,2.724,-1.685,0.794,2.153,8.958,61.38,-61.38,71.111,-91.793
5290,16,-37.019,-12.887,36.215,-3.081,2.724,-1.685,0.794,2.153,8.958,60.126,-60.126,68.199,-89.691
5291,16,-37.129,-10.512,35.401,-2.139,3.434,-1.403,0.933,2.149,8.417,49.388,-49.388,40.998,-92.775
5292,16,-38.48,-8.901,34.954,-2.139,3.434,-1.403,0.933,2.149,7.254,48.516,-48.516,37.064,-93.219
5293,16,-38.212,-6.446,33.926,-0.814,4.047,-1.007,1.373,2.125,7.254,34.838,-34.838,11.584,-90.489
5294,16,-38.696,-2.229,32.011,-0.814,4.047,-1.007,1.373,2.125,7.254,32.642,-32.642,4.059,-89.231
5295,16,-37.905,0.548,30.376,0.847,4.512,-0.51,1.613,2.153,6.144,14.694,-14.694,-26.472,-81.184
5296,16,-37.686,1.885,29.25,0.847,4.512,-0.51,1.613,2.153,4.809,13.621,-13.621,-30.09,-80.512
5297,16,-36.56,4.778,27.745,2.568,4.903,0.118,1.794,1.909,4.809,-5.175,5.175,-59.225,-68.894
5298,16,-33.616,8.885,24.924,2.568,4.903,0.118,1.794,1.909,4.809,-7.353,7.353,-66.784,-67.738
5299,16,-32.12,11.781,22.516,4.454,5.039,0.872,1.785,1.866,3.053,-29.109,29.109,-98.315,-49.957
5300,16,-30.164,12.816,20.755,4.454,5.039,0.872,1.785,1.866,0.756,-29.695,29.695,-100.811,-50.108
5301,16,-28.272,15.855,19.057,6.501,4.79,1.693,1.637,2.359,0.756,-51.892,51.892,-125.07,-26.53
5302,16,-25.108,18.467,16.634,6.501,4.79,1.693,1.637,2.359,0.756,-52.933,52.933,-130.734,-28.028
5303,16,-19.792,21.906,12.994,8.635,4.102,2.503,1.354,2.967,-1.9,-71.146,71.146,-147.388,-1.802
5304,16,-16.426,22.542,10.926,8.635,4.102,2.503,1.354,2.967,-5.149,-70.542,70.542,-147.363,-4.196
5305,16,-14.091,24.473,9.589,10.604,2.969,3.139,0.847,3.374,-5.149,-78.486,78.486,-149.926,25.019
5306,16,-9.601,25.834,7.366,10.604,2.969,3.139,0.847,3.374,-5.149,-77.377,77.377,-149.961,20.546
5307,16,-2.292,27.278,4.146,11.651,1.522,3.588,0.837,3.68,-8.412,-76.805,76.805,-130.641,37.581
5308,16,2.823,27.676,2.12,11.651,1.522,3.588,0.837,3.68,-9.546,-78.474,78.474,-134.414,40.48
5309,16,5.255,28.264,1.082,11.196,0.209,3.868,0.187,3.886,-9.546,-80.936,80.936,-121.332,63.411
5310,16,10.145,28.626,-0.963,11.196,0.209,3.868,0.187,3.886,-9.546,-78.853,78.853,-117.366,59.044
5311,16,16.422,28.946,-3.983,9.204,-0.718,3.853,-0.689,3.575,-9.121,-74.706,74.706,-95.138,64.686
5312,16,20.261,29.371,-5.939,9.204,-0.718,3.853,-0.689,3.575,-7.149,-74.236,74.236,-94.614,63.331
5313,16,21.582,29.154,-6.931,7.007,-1.189,3.572,-1.297,3.292,-7.149,-70.297,70.297,-79.488,62.699
5314,16,24.241,29.22,-8.82,7.007,-1.189,3.572,-1.297,3.292,-7.149,-69.216,69.216,-76.902,60.96
5315,16,27.242,29.323,-11.452,5.089,-1.328,3.227,-1.503,3.211,-5.383,-61.452,61.452,-57.509,49.297
5316,16,28.915,29.41,-13.139,5.089,-1.328,3.227,-1.503,3.211,-4.709,-62.998,62.998,-61.678,51.312
5317,16,29.141,29.415,-13.893,2.789,-1.388,2.898,-1.718,3.173,-4.709,-52.74,52.74,-52.374,43.809
5318,16,29.589,29.433,-15.401,2.789,-1.388,2.898,-1.718,3.173,-4.709,-52.561,52.561,-51.928,43.538
5319,16,28.888,29.424,-17.45,0.189,-1.322,2.584,-1.991,3.34,-4.149,-34.577,34.577,-42.204,33.335
5320,16,27.964,29.389,-18.741,0.189,-1.322,2.584,-1.991,3.34,-4.45,-36.283,36.283,-46.653,35.707
5321,16,26.763,29.388,-19.255,-2.634,-1.057,2.271,-2.345,3.378,-4.45,-18.712,18.712,-43.802,24.733
5322,16,24.37,29.355,-20.274,-2.634,-1.057,2.271,-2.345,3.378,-4.45,-19.659,19.659,-46.166,26.156
5323,16,19.28,29.372,-21.45,-5.583,-0.611,1.888,-2.651,3.321,-4.776,-2.013,2.013,-47.63,13.082
5324,16,15.393,29.368,-22.118,-5.583,-0.611,1.888,-2.651,3.321,-6.163,-1.901,1.901,-51.768,15.96
5325,16,12.765,29.438,-22.28,-8.287,-0.185,1.474,-2.795,3.651,-6.163,12.394,-12.394,-50.12,1.304
5326,16,7.51,29.534,-22.617,-8.287,-0.185,1.474,-2.795,3.651,-6.163,10.14,-10.14,-55.229,5.213
5327,16,-1.381,29.731,-22.822,-10.361,0.089,1.039,-2.771,4.039,-7.876,11.651,-11.651,-56.654,-2.259
5328,16,-7.634,29.861,-22.866,-10.361,0.089,1.039,-2.771,4.039,-10.097,8.833,-8.833,-62.224,3.445
5329,16,-11.075,29.944,-22.786,-11.652,0.154,0.721,-2.483,4.354,-10.097,11.251,-11.251,-58.143,-2.148
5330,16,-17.953,30.098,-22.635,-11.652,0.154,0.721,-2.483,4.354,-10.097,8.191,-8.191,-63.582,4.652
5331,16,-27.992,30.269,-22.173,-11.436,-0.013,0.419,-1.866,3.876,-11.336,7.794,-7.794,-60.219,9.606
5332,16,-34.582,30.378,-21.779,-11.436,-0.013,0.419,-1.866,3.876,-10.384,5.135,-5.135,-63.849,16.613
5333,16,-37.517,30.391,-21.456,-10.425,-0.341,0.208,-1.038,3.67,-10.384,6.71,-6.71,-55.13,19.032
5334,16,-48.462,30.356,-19.755,-10.425,-0.341,0.208,-1.038,3.67,-10.384,4.706,-4.706,-57.225,24.951
5335,16,-51.47,30.511,-19.541,-9.481,-0.673,0.032,-0.574,3.632,-8.58,4.298,-4.298,-50.054,33.753
5336,16,-56.626,30.596,-18.599,-9.481,-0.673,0.032,-0.574,3.632,-6.895,3.072,-3.072,-50.678,38.035
5337,16,-58.904,30.66,-18.026,-8.618,-0.927,-0.142,0.014,3.522,-6.895,4.653,-4.653,-42.953,39.434
5338,16,-63.446,30.82,-16.875,-8.618,-0.927,-0.142,0.014,3.522,-6.895,3.539,-3.539,-43.244,43.601
5339,16,-69.556,31.195,-14.999,-7.547,-1.099,-0.261,0.301,3.455,-5.833,3.551,-3.551,-38.057,48.738
5340,16,-73.39,31.516,-13.703,-7.547,-1.099,-0.261,0.301,3.455,-5.015,3.512,-3.512,-36.367,50.583
5341,16,-75.008,31.723,-12.981,-6.638,-1.294,-0.404,0.45,3.527,-5.015,5.297,-5.297,-29.265,50.548
5342,16,-80.58,32.844,-10.092,-6.638,-1.294,-0.404,0.45,3.527,-5.015,5.297,-5.297,-27.718,52.095
5343,16,-82.438,32.978,-9.244,-5.692,-1.519,-0.524,0.636,3.622,-4.187,6.801,-6.801,-18.218,55.576
5344,16,-85.018,33.585,-7.668,-5.692,-1.519,-0.524,0.636,3.622,-3.9,6.801,-6.801,-18.041,55.754
5345,16,-85.946,33.938,-6.83,-4.531,-1.674,-0.657,0.876,3.613,-3.9,8.466,-8.466,-12.009,55.128
5346,16,-87.783,34.665,-5.151,-4.531,-1.674,-0.657,0.876,3.613,-3.9,8.466,-8.466,-10.982,56.155
5347,16,-89.493,35.827,-2.531,-2.863,-1.828,-0.704,1.067,3.34,-3.436,3.369,-3.369,-5.087,59.706
5348,16,-90.262,36.623,-0.735,-2.863,-1.828,-0.704,1.067,3.34,-3.125,3.369,-3.369,-6.115,58.678
5349,16,-90.093,37.041,0.191,-1.001,-1.904,-0.78,1.129,3.283,-3.125,-4.996,4.996,-3.251,57.76
5350,16,-88.862,38.848,3.799,-1.001,-1.904,-0.78,1.129,3.283,-3.125,-4.996,4.996,-3.497,57.514
5351,16,-87.701,39.125,4.928,1.431,-1.896,-0.913,1.349,3.436,-3.675,-15.492,15.492,-1.686,52.667
5352,16,-85.83,39.927,6.896,1.431,-1.896,-0.913,1.349,3.436,-3.862,-15.492,15.492,-3.059,51.295
5353,16,-84.131,40.342,7.881,4.07,-1.825,-1.047,1.517,3.326,-3.862,-27.012,27.012,-1.983,45.66
5354,16,-80.692,41.104,9.896,4.07,-1.825,-1.047,1.517,3.326,-3.862,-27.012,27.012,-4.6,43.043
5355,16,-74.146,42.124,12.966,6.391,-1.694,-1.128,1.536,3.498,-4.331,-37.601,37.601,-8.201,35.394
5356,16,-69.286,42.671,15.07,6.391,-1.694,-1.128,1.536,3.498,-5.757,-37.601,37.601,-13.325,30.269
5357,16,-66.363,42.93,16.088,8.187,-1.517,-1.196,1.565,3.895,-5.757,-44.796,44.796,-16.407,23.779
5358,16,-60.477,43.345,18.174,8.187,-1.517,-1.196,1.565,3.895,-5.757,-44.796,44.796,-20.874,19.312
5359,16,-51.122,43.798,21.288,9.113,-1.32,-1.286,1.488,4.034,-7.589,-43.678,43.678,-27.32,8.391
5360,16,-44.705,43.948,23.371,9.113,-1.32,-1.286,1.488,4.034,-9.015,-43.678,43.678,-27.572,8.139
5361,16,-41.54,44.041,24.374,9.053,-1.066,-1.383,1.273,3.986,-9.015,-42.466,42.466,-28.77,2.094
5362,16,-35.213,44.117,26.386,9.053,-1.066,-1.383,1.273,3.986,-9.015,-40.216,40.216,-28.77,2.094
5363,16,-26.006,44.053,29.402,8.576,-0.96,-1.472,1.101,3.909,-10.279,-35.668,35.668,-21.195,-8.525
5364,16,-19.985,43.873,31.417,8.576,-0.96,-1.472,1.101,3.909,-10.47,-30.25,30.25,-10.36,-19.36
5365,16,-17.097,43.752,32.438,8.156,-0.93,-1.545,0.833,3.603,-10.47,-27.085,27.085,-4.456,-26.116
5366,16,-6.059,42.662,36.396,8.156,-0.93,-1.545,0.833,3.603,-10.47,-22.443,22.443,4.827,-35.399
5367,16,-3.372,42.656,37.266,7.24,-0.964,-1.593,0.636,1.771,-9.781,-15.292,15.292,19.618,-49.216
5368,16,1.675,42.006,39.008,7.24,-0.964,-1.593,0.636,1.771,-9.259,-11.284,11.284,27.632,-57.23
5369,16,3.88,41.631,39.85,6.2,-1.009,-1.642,0.502,0.105,-9.259,-8.997,8.997,32.847,-61.167
5370,16,12.126,39.783,42.813,6.2,-1.009,-1.642,0.502,0.105,-9.259,-5.895,5.895,39.05,-67.37
5371,16,14.077,39.489,43.559,5.391,-0.933,-1.654,0.187,-0.498,-7.561,-2.031,2.031,45.698,-76.179
5372,16,17.719,38.542,44.843,5.391,-0.933,-1.654,0.187,-0.498,-7.168,-0.072,0.072,49.616,-80.097
5373,16,19.344,38.081,45.442,4.812,-0.823,-1.599,0.072,-0.479,-7.168,0.015,-0.015,48.222,-81.837
5374,16,22.973,36.798,48.364,4.812,-0.823,-1.599,0.072,-0.479,-7.168,1.373,-1.373,50.938,-84.554
5375,16,20.387,34.743,48.617,-7.725,-1.975,-2.822,-10.523,-21.763,-49.55,72.801,-72.801,92.992,-93.706
5376,16,16.731,32.899,50.191,-7.725,-1.975,-2.822,-10.523,-21.763,-141.593,71.03,-71.03,87.522,-88.236
5377,16,27.011,30.493,50.912,34.901,-6.541,-4.874,17.246,-127.242,-141.593,40.462,-40.462,213.4,-78.447
5378,16,53.05,24.589,50.759,34.901,-6.541,-4.874,17.246,-127.242,-141.593,42.5,-42.5,228.335,-71.665
5379,16,46.584,24.024,48.1,-14.988,-1.034,3.594,24.088,-64.81,-16.059,-4.574,4.574,-63.066,65.228
5380,16,36.84,24.592,45.851,-14.988,-1.034,3.594,24.088,-64.81,2.483,-6.338,6.338,-69.516,65.835
5381,16,31.915,27.361,42.4,-11.552,2.512,14.629,-0.679,-8.518,2.483,-47.5,47.5,-206.844,93.155
5382,16,21.168,31.987,34.428,-11.552,2.512,14.629,-0.679,-8.518,2.483,-47.5,47.5,-214.456,85.544
5383,16,3.436,38.454,19.837,-10.233,6.519,15.54,-1.838,-0.531,0.206,-47.5,47.5,-235.714,64.286
5384,16,-9.99,41.214,8.11,-10.233,6.519,15.54,-1.838,-0.531,-0.258,-47.5,47.5,-235.714,64.286
5385,16,-16.592,42.601,1.983,-8.791,9.231,14.459,-1.928,-0.598,-0.258,-47.5,47.5,-235.714,64.286
5386,16,-30.48,43.702,-11.006,-8.791,9.231,14.459,-1.928,-0.598,-0.258,-47.5,47.5,-235.714,64.286
5387,16,-50.539,42.479,-30.603,-7.528,11.354,13.081,-1.751,-0.579,-1.665,-47.5,47.5,-235.714,64.286
5388,16,-62.607,39.513,-42.688,-7.528,11.354,13.081,-1.751,-0.579,-2.129,-47.5,47.5,-235.714,64.286
5389,16,-67.923,37.909,-48.474,-6.33,12.891,11.678,-1.732,-0.613,-2.129,-47.5,47.5,-235.714,64.286
5390,16,-77.448,33.551,-59.005,-6.33,12.891,11.678,-1.732,-0.613,-2.129,-47.5,47.5,-235.714,64.286
5391,16,-88.579,25.637,-72.78,-5.23,13.999,10.305,-1.646,-0.665,-2.326,-47.5,47.5,-235.714,64.286
5392,16,-94.273,19.552,-80.761,-5.23,13.999,10.305,-1.646,-0.665,-2.378,-47.5,47.5,-235.714,64.286
5393,16,-96.44,16.616,-84.682,-4.036,14.766,9.024,-1.402,-0.268,-2.378,-47.5,47.5,-235.714,64.286
5394,16,-100.046,10.383,-92.043,-4.036,14.766,9.024,-1.402,-0.268,-2.378,-47.5,47.5,-235.714,64.286
5395,16,-103.205,0.999,-102.65,-2.908,15.2,7.907,-1.263,-0.359,-2.163,-52.959,52.959,-235.714,64.286
5396,16,-104.121,-5.263,-109.639,-2.908,15.2,7.907,-1.263,-0.359,-1.78,-52.959,52.959,-235.714,64.286
5397,16,-103.946,-8.168,-113.256,-1.756,15.378,7.015,-0.928,-0.177,-1.78,-49.324,49.324,-216.918,45.49
5398,16,-103.023,-13.889,-120.647,-1.756,15.378,7.015,-0.928,-0.177,-1.78,-46.407,46.407,-211.083,39.655
5399,16,-99.374,-21.667,-132.539,-0.519,15.395,6.386,-0.66,-0.005,-1.134,-44.734,44.734,-195.371,23.942
5400,16,-95.624,-26.162,-141.208,-0.519,15.395,6.386,-0.66,-0.005,-0.488,-44.734,44.734,-195.371,23.942
5401,16,-93.033,-28.071,-145.781,0.854,15.299,6.051,-0.421,0.158,-0.488,-47.405,47.405,-186.982,15.553
5402,16,-87.227,-31.262,-155.457,0.854,15.299,6.051,-0.421,0.158,-0.488,-47.405,47.405,-186.982,15.553
5403,16,-76.451,-34.132,-171.051,2.278,15.161,6.011,-0.311,0.254,0.1,-54.029,54.029,-185.996,14.568
5404,16,-68.74,-34.811,177.647,2.278,15.161,6.011,-0.311,0.254,0.598,-54.029,54.029,-185.996,14.568
5405,16,-64.508,-34.891,171.738,3.804,14.957,6.238,-0.287,0.316,0.598,-64.498,64.498,-191.669,20.24
5406,16,-56.134,-34.017,160.022,3.804,14.957,6.238,-0.287,0.316,0.598,-64.498,64.498,-191.669,20.24
5407,16,-43.728,-30.537,143.417,5.312,14.612,6.687,-0.507,0.292,1.134,-77.646,77.646,-202.881,31.452
5408,16,-36.248,-26.788,133.361,5.312,14.612,6.687,-0.507,0.292,1.239,-77.646,77.646,-202.881,31.452
5409,16,-32.466,-24.737,128.609,6.652,14.096,7.342,-0.488,0.33,1.239,-92.53,92.53,-219.259,47.831
5410,16,-25.665,-19.901,119.81,6.652,14.096,7.342,-0.488,0.33,1.239,-100.048,100.048,-234.295,62.867
5411,16,-21.915,-10.585,106.283,-2.116,16.154,10.411,76.165,33.884,23.275,-56.922,56.922,-235.714,64.286
5412,16,-22.38,-4.052,97.225,-2.116,16.154,10.411,76.165,33.884,4.953,-56.922,56.922,-235.714,64.286
5413,16,-25.782,-1.383,91.22,-12.166,16.895,15.544,35.262,12.494,4.953,-47.5,47.5,-235.714,64.286
5414,16,-33.313,2.734,78.832,-12.166,16.895,15.544,35.262,12.494,4.953,-47.5,47.5,-235.714,64.286
5415,16,-44.946,6.324,59.768,-9.118,16.895,13.127,35.262,12.494,4.953,-47.5,47.5,-235.714,64.286
5416,16,-52.075,7.711,47.018,-9.118,18.662,13.127,-0.986,-2.062,-0.723,-47.5,47.5,-235.714,64.286
5417,16,-55.698,7.784,40.625,-9.118,18.662,13.127,-1.598,-0.88,-1.637,-47.5,47.5,-235.714,64.286
5418,16,-61.546,8.523,27.865,-6.526,20.257,10.642,-1.598,-0.88,-1.637,-47.5,47.5,-235.714,64.286
5419,16,-69.494,7.759,8.768,-3.961,20.257,8.838,-1.598,-0.88,-1.637,-47.697,47.697,-235.714,64.286
5420,16,-73.587,6.726,-3.918,-3.961,21.281,8.838,-1.287,-1.062,-1.287,-47.697,47.697,-235.714,64.286
5421,16,-75.508,5.874,-10.2,-3.961,21.281,8.838,-0.947,-0.675,-1.421,-47.697,47.697,-235.714,64.286
5422,16,-77.773,4.433,-22.738,-1.664,21.723,7.608,-0.947,-0.675,-1.421,-59.18,59.18,-235.714,64.286
5423,16,-79.813,1.661,-41.339,0.434,21.723,6.926,-0.947,-0.675,-1.421,-69,69,-234.378,62.95
5424,16,-79.862,-0.1,-53.662,0.434,21.8,6.926,-0.818,-0.416,-1.474,-68.815,68.815,-234.008,62.579
5425,16,-79.74,-0.974,-59.819,0.434,21.8,6.926,-0.871,-0.234,-1.369,-67.744,67.744,-231.867,60.438
5426,16,-78.075,-2.43,-72.029,2.449,21.609,6.714,-0.871,-0.234,-1.369,-73.463,73.463,-223.149,51.721
5427,16,-74.231,-3.736,-91.671,4.57,21.609,6.94,-0.871,-0.234,-1.369,-82.325,82.325,-219.665,48.237
5428,16,-70.631,-3.779,-105.11,4.57,21.14,6.94,-0.914,-0.014,-1.139,-85.819,85.819,-226.653,55.224
5429,16,-68.854,-3.492,-111.821,4.57,21.14,6.94,-1.029,0.234,-0.857,-86.336,86.336,-227.686,56.258
5430,16,-64.078,-2.714,-124.919,6.919,20.337,7.626,-1.029,0.234,-0.857,-102.094,102.094,-235.714,64.286
5431,16,-56.778,-0.085,-144.174,9.523,20.337,8.768,-1.029,0.234,-0.857,-107.5,107.5,-235.714,64.286
5432,16,-51.471,2.441,-156.576,9.523,19.058,8.768,-1.263,0.459,-0.579,-107.5,107.5,-235.714,64.286
5433,16,-49.043,4.099,-162.682,9.523,19.058,8.768,-1.56,0.565,-0.292,-107.5,107.5,-235.714,64.286
5434,16,-42.997,6.879,-174.446,12.32,17.106,10.309,-1.56,0.565,-0.292,-107.5,107.5,-235.714,64.286
5435,16,-34.329,12.178,168.52,15.08,17.106,12.078,-1.56,0.565,-0.292,-107.5,107.5,-235.714,64.286
5436,16,-28.231,15.831,157.636,15.08,14.267,12.078,-1.948,0.44,-0.057,-107.5,107.5,-235.714,64.286
5437,16,-25.443,18.042,152.311,15.08,14.267,12.078,-2.316,0.129,0.033,-107.5,107.5,-235.714,64.286
5438,16,-18.959,20.826,142.006,17.385,10.417,13.81,-2.316,0.129,0.033,-107.5,107.5,-235.714,64.286
5439,16,-9.906,25.345,127.411,18.849,10.417,15.126,-2.316,0.129,0.033,-107.5,107.5,-235.714,64.286
5440,16,-3.769,27.707,117.886,18.849,5.617,15.126,-2.55,-0.402,-0.134,-107.5,107.5,-235.714,64.286
5441,16,-0.826,29.262,113.169,18.849,5.617,15.126,-2.507,-1,-0.459,-107.5,107.5,-235.714,64.286
5442,16,4.889,30.017,103.429,19.017,0.255,15.707,-2.507,-1,-0.459,-107.5,107.5,-182.125,117.875
5443,16,12.748,31.363,88.577,17.781,0.255,15.48,-2.507,-1,-0.459,-107.5,107.5,-180.606,119.394
5444,16,17.361,31.271,78.329,17.781,-4.946,15.48,-2.096,-1.416,-0.703,-107.5,107.5,-107.914,192.086
5445,16,19.666,31.507,73.194,17.781,-4.946,15.48,-1.493,-1.613,-0.919,-107.5,107.5,-107.914,192.086
5446,16,22.689,29.167,61.305,15.424,-9.403,14.621,-1.493,-1.613,-0.919,-107.5,107.5,-64.286,235.714
5447,16,27.078,25.673,43.611,12.392,-9.403,13.478,-1.493,-1.613,-0.919,-107.5,107.5,-64.286,235.714
5448,16,29.501,22.549,31.889,12.392,-12.777,13.478,-0.971,-1.546,-0.871,-107.5,107.5,-64.286,235.714
5449,16,30.937,21.167,26.097,12.392,-12.777,13.478,-0.373,-2.206,-1.101,-107.5,107.5,-64.286,235.714
5450,16,32.476,17.268,14.579,9.187,-14.967,12.392,-0.373,-2.206,-1.101,-107.5,107.5,-64.286,235.714
5451,16,35.363,13.053,-0.709,5.494,-14.967,10.138,-0.373,-2.206,-1.101,-107.5,107.5,-64.286,235.714
5452,16,36.734,11.823,-8.598,5.494,-9.146,10.138,-2.584,-108.551,-67.107,-107.5,107.5,-64.286,235.714
5453,16,37.499,11.278,-12.506,5.494,-9.146,10.138,-2.421,-14.733,-2.555,-107.5,107.5,-64.286,235.714
5454,16,38.926,11.35,-19.826,5.045,-7.28,10.631,-2.421,-14.733,-2.555,-107.5,107.5,-64.286,235.714
5455,16,40.808,11.697,-30.54,3.861,-7.28,10.05,-2.421,-14.733,-2.555,-106.803,106.803,-64.286,235.714
5456,16,41.66,11.973,-37.42,3.861,-7.213,10.05,0.78,-0.163,-1.034,-106.803,106.803,-64.286,235.714
5457,16,42.083,12.154,-40.843,3.861,-7.213,10.05,-0.354,0.239,-0.019,-106.803,106.803,-64.286,235.714
5458,16,42.196,12.491,-47.519,2.539,-7.123,9.804,-0.354,0.239,-0.019,-100.193,100.193,-64.286,235.714
5459,16,42.005,13.03,-57.538,1.398,-7.123,9.914,-0.354,0.239,-0.019,-94.488,94.488,-64.286,235.714
5460,16,41.402,13.33,-64.272,1.398,-7.282,9.914,-0.77,-0.354,-0.01,-94.488,94.488,-64.286,235.714
5461,16,41.097,13.457,-67.633,1.398,-7.282,9.914,-1.67,-0.957,0.134,-94.488,94.488,-64.286,235.714
5462,16,39.816,13.678,-74.303,0.213,-7.165,9.896,-1.67,-0.957,0.134,-88.565,88.565,-64.286,235.714
5463,16,37.587,13.774,-84.157,-0.988,-7.165,9.598,-1.67,-0.957,0.134,-82.562,82.562,-64.286,235.714
5464,16,35.71,13.663,-90.531,-0.988,-6.803,9.598,-3.699,-1.364,-0.033,-82.562,82.562,-64.286,235.714
5465,16,34.784,13.535,-93.716,-0.988,-6.803,9.598,-7.628,-0.148,1.412,-82.562,82.562,-64.286,235.714
5466,16,32.521,13.364,-99.753,-1.898,-6.173,9.388,-7.628,-0.148,1.412,-78.008,78.008,-65.863,234.137
5467,16,29.338,12.839,-108.42,-1.728,-6.173,8.534,-7.628,-0.148,1.412,-78.861,78.861,-64.286,235.714
5468,16,27.443,12.439,-113.713,-1.728,-5.296,8.534,-13.006,1.555,1.507,-78.861,78.861,-77.428,222.572
5469,16,26.511,12.196,-116.353,-1.728,-5.296,8.534,-7.465,3.441,0.416,-78.861,78.861,-77.143,222.857
5470,16,24.411,11.923,-121.44,-2.243,-4.651,8.515,-7.465,3.441,0.416,-76.283,76.283,-86.059,213.941
5471,16,20.923,11.467,-129.081,-3.574,-4.651,8.991,-7.465,3.441,0.416,-69.63,69.63,-83.315,216.685
5472,16,18.104,11.224,-134.21,-3.574,-3.879,8.991,-1.708,0.986,-0.282,-68.684,68.684,-96.253,203.747
5473,16,16.706,11.01,-136.764,-3.574,-3.879,8.991,-0.455,0.306,-0.368,-67.984,67.984,-95.974,204.026
5474,16,13.315,10.848,-141.861,-4.652,-3.084,9.242,-0.455,0.306,-0.368,-60.898,60.898,-107.122,192.878
5475,16,8.162,10.248,-149.436,-5.104,-3.084,9.348,-0.455,0.306,-0.368,-56.464,56.464,-105.317,194.683
5476,16,4.59,9.751,-154.42,-5.104,-2.338,9.348,-1.038,2.503,-1.522,-54.277,54.277,-116.242,183.758
5477,16,2.819,9.388,-156.893,-5.104,-2.338,9.348,-8.575,39.214,-9.848,-53.391,53.391,-115.723,184.277
5478,16,-0.379,6.638,-160.436,-4.825,-5.526,6.806,-8.575,39.214,-9.848,-53.187,53.187,-66.261,233.739
5479,16,-4.886,2.267,-165.246,-4.852,-5.526,5.426,-8.575,39.214,-9.848,-39.093,39.093,-40.795,212.223
5480,16,-7.666,-0.719,-167.791,-4.852,-5.393,5.426,0.215,19.227,-1.412,-40.361,40.361,-46.331,217.76
5481,16,-9.003,-2.252,-169.017,-4.852,-5.393,5.426,-0.129,3.508,-1.483,-39.032,39.032,-45.081,216.51
5482,16,-11.745,-5.01,-171.535,-5.122,-4.664,5.634,-0.129,3.508,-1.483,-39.022,39.022,-47.33,218.758
5483,16,-15.709,-9.334,-175.139,-5.351,-4.664,5.955,-0.129,3.508,-1.483,-36.96,36.96,-43.206,214.635
5484,16,-18.297,-12.327,-177.487,-5.351,-4.542,5.955,-0.172,0.057,-0.421,-37.752,37.752,-44.79,216.219
5485,16,-19.555,-13.86,-178.605,-5.351,-4.542,5.955,-0.187,-0.684,-0.641,-36.409,36.409,-42.103,213.532
5486,16,-22.087,-16.886,179.011,-5.596,-4.216,6.278,-0.187,-0.684,-0.641,-37.478,37.478,-44.242,215.671
5487,16,-25.755,-21.587,175.553,-5.846,-4.216,6.662,-0.187,-0.684,-0.641,-33.984,33.984,-37.253,208.682
5488,16,-26.729,-24.811,172.895,-5.846,-4.001,6.662,0,-0.498,-0.871,-34.069,34.069,-37.424,208.853
5489,16,-29.291,-26.468,172.107,-5.846,-4.001,6.662,-0.158,0.215,-0.517,-30.927,30.927,-31.14,202.569
5490,16,-31.538,-29.71,169.588,-6.111,-3.546,7.051,-0.158,0.215,-0.517,-35.637,35.637,-47.042,205.507
5491,16,-31.877,-34.704,166.048,4.147,-3.546,6.737,-0.158,0.215,-0.517,-72.445,72.445,-39.186,197.651
5492,16,-29.544,-38.073,164.062,4.147,-3.702,6.737,17.696,-1.144,-6.039,-72.445,72.445,-36.964,199.872
5493,16,-25.909,-39.623,161.982,4.147,-3.702,6.737,19.016,-11.116,-26.18,-72.445,72.445,-36.964,199.872
5494,16,-18.276,-42.319,159.276,10.335,-3.334,5.64,19.016,-11.116,-26.18,-77.994,77.994,-14.784,167.192
5495,16,-8.155,-43.742,156.412,6.706,-3.334,0.25,19.016,-11.116,-26.18,-14.782,14.782,103.406,49.002
5496,16,-4.137,-41.22,156.615,6.706,4.768,0.25,11.92,-15.135,-22.715,-29.215,29.215,-32.975,-46.114
5497,16,-2.176,-39.956,156.805,6.706,4.768,0.25,-0.761,-2.852,-2.818,-32.396,32.396,-39.336,-39.753
5498,16,1.373,-37.179,157.585,6.466,5.198,-0.114,-0.761,-2.852,-2.818,-32.927,32.927,-46.546,-44.839
5499,16,6.517,-34.876,159.2,6.546,5.198,-0.972,-0.761,-2.852,-2.818,-29.999,29.999,-40.691,-50.695
5500,16,9.861,-35.782,160.468,6.546,-1.136,-0.972,-4.522,-9.958,-15.159,-32.833,32.833,44.128,45.46
5501,16,11.542,-36.238,161.087,6.546,-1.136,-0.972,-4.201,-0.603,-11.02,-35.106,35.106,39.581,50.007
5502,16,12.783,-38.454,161.874,2.431,-3.508,-0.83,-4.201,-0.603,-11.02,-31.248,31.248,64.383,92.986
5503,16,14.005,-41.16,162.953,0.131,-3.508,-0.214,-4.201,-0.603,-11.02,-31.391,31.391,42.214,115.155
5504,16,13.968,-42.155,163.597,0.131,-1.586,-0.214,-4.761,-2.531,-10.039,-32.053,32.053,13.436,89.026
5505,16,13.945,-42.644,163.922,0.131,-1.586,-0.214,-3.589,-2.795,-5.326,-32.38,32.38,12.781,89.681
5506,16,13.889,-42.485,164.624,0.177,0.332,0.19,-3.589,-2.795,-5.326,-37.458,37.458,-24.325,71.971
5507,16,13.706,-41.945,165.641,-0.273,0.332,0.459,-3.589,-2.795,-5.326,-39.047,39.047,-31.997,79.644
5508,16,13.437,-41.208,166.283,-0.273,1.237,0.459,-3.034,-2.11,-6.283,-37.031,37.031,-40.886,62.692
5509,16,13.309,-40.837,166.596,-0.273,1.237,0.459,-4.216,-0.775,-11.207,-36.602,36.602,-40.029,61.835
5510,16,12.531,-39.88,167.095,-1.315,1.532,0.671,-4.216,-0.775,-11.207,-31.879,31.879,-46.186,59.561
5511,16,11.201,-38.567,167.792,-1.925,1.532,0.555,-4.216,-0.775,-11.207,-24.379,24.379,-39.378,52.753
5512,16,10.079,-37.87,168.217,-1.925,1,0.555,-2.986,2.737,-13.13,-20.922,20.922,-26.97,55.534
5513,16,9.522,-37.514,168.413,-1.925,1,0.555,-0.546,3.263,-7.628,-19.584,19.584,-25.188,53.752
5514,16,8.344,-37.48,168.81,-2.009,-0.179,0.327,-0.546,3.263,-7.628,-13.905,13.905,0.471,61.786
5515,16,6.543,-37.448,169.408,-2.024,-0.179,0.221,-0.546,3.263,-7.628,-9.661,9.661,6.532,55.724
5516,16,5.311,-37.481,169.832,-2.024,-0.329,0.221,-0.526,1.22,-10.417,-6.258,6.258,13.351,53.197
5517,16,4.695,-37.492,170.042,-2.024,-0.329,0.221,-0.311,0.349,-10.259,-4.98,4.98,15.004,51.544
5518,16,3.566,-37.37,170.484,-1.817,-0.079,0.206,-0.311,0.349,-10.259,-3.443,3.443,14.895,44.501
5519,16,1.982,-37.141,171.143,-1.45,-0.079,0.185,-0.311,0.349,-10.259,-2.67,2.67,18.156,41.239
5520,16,1.059,-36.927,171.583,-1.45,0.077,0.185,0.488,1.081,-9.408,0.241,-0.241,20.01,34.941
5521,16,0.6,-36.82,171.795,-1.45,0.077,0.185,0.646,1.388,-10.02,1.195,-1.195,21.245,33.707
5522,16,-0.149,-36.649,172.211,-1.154,-0.014,0.198,0.646,1.388,-10.02,1.097,-1.097,24.21,33.329
5523,16,-1.172,-36.398,172.825,-0.798,-0.014,0.158,0.646,1.388,-10.02,1.002,-1.002,26.447,31.091
5524,16,-1.728,-36.239,173.244,-0.798,-0.042,0.158,0.723,0.775,-9.312,3.021,-3.021,29.731,28.599
5525,16,-2.002,-36.161,173.452,-0.798,-0.042,0.158,1.282,1.579,-10.475,3.568,-3.568,30.433,27.897
5526,16,-2.436,-35.997,173.936,-0.505,-0.038,0.043,1.282,1.579,-10.475,4.395,-4.395,34.354,23.884
