packet_timestamp,statemachine,angle_roll,angle_pitch,angle_yaw,gyro_x,gyro_y,gyro_z,acc_x,acc_y,acc_z,rudder1,rudder2,rudder3,rudder4
2791,16,-1.746,42.215,-3.464,0.068,0.319,0.368,3.933,142.129,1.57,-9.264,9.264,-32.124,-11.859
2792,16,-2.844,42.568,-3.473,0.068,0.319,0.368,3.933,142.129,1.57,-9.153,9.153,-32.761,-11.896
2793,16,-2.882,42.317,-2.871,-0.144,-0.576,-0.105,1.699,115.844,0.469,-2.024,2.024,-8.276,-10.404
2794,16,-3.257,42.189,-2.408,-0.144,-0.576,-0.105,1.699,115.844,0.469,-1.926,1.926,-8.273,-10.03
2795,16,-3.103,40.151,-1.816,0.019,-7.017,-0.769,1.038,14.882,-20.911,5.65,-5.65,103.554,67.875
2796,16,-2.784,34.435,-0.145,0.019,-7.017,-0.769,1.038,14.882,-20.911,5.815,-5.815,104.145,67.284
2797,16,-2.14,28.6,1.205,0.823,-10.474,-1.014,0.215,2.259,2.034,4.945,-4.945,111.198,60.23
2798,16,-1.606,25.686,2.428,0.823,-10.474,-1.014,0.215,2.259,2.034,4.766,-4.766,111.37,60.058
2799,16,-1.619,19.797,3.077,0.229,-10.662,-1.109,0.172,2.053,7.288,9.153,-9.153,114.166,57.263
2800,16,-1.678,10.91,4.929,0.229,-10.662,-1.109,0.172,2.053,7.288,9.407,-9.407,114.618,56.81
2801,16,-1.78,4.978,6.221,0.348,-10.717,-1.202,0.847,2.263,13.303,10.549,-10.549,117.832,53.597
2802,16,-1.802,2.024,7.478,0.348,-10.717,-1.202,0.847,2.263,13.303,10.745,-10.745,118.147,53.281
2803,16,-2.139,-3.585,8.242,0.383,-10.717,-1.388,-0.033,2.158,17.782,13.741,-13.741,123.964,47.464
2804,16,-2.759,-11.494,10.449,0.383,-9.699,-1.388,-0.033,2.158,17.782,14.839,-14.839,125.491,45.938
2805,16,-3.945,-15.69,12.174,-0.63,-7.94,-1.734,-0.416,2.058,18.672,27.934,-27.934,139.149,32.28
2806,16,-4.966,-17.692,13.825,-0.63,-7.94,-1.734,-0.416,2.058,18.672,30.544,-30.544,142.652,28.777
2807,16,-6.432,-21.299,15.019,-2.123,-7.94,-1.952,-0.995,2.488,18.863,45.32,-45.32,154.403,17.025
2808,16,-10.101,-25.58,18.227,-2.123,-6.036,-1.952,-0.995,2.488,18.863,52.736,-52.736,164.568,6.861
2809,16,-13.133,-27.177,20.504,-2.922,-4.155,-2.237,-0.962,2.632,18.815,69.58,-69.58,190.154,-18.726
2810,16,-15.888,-27.596,22.548,-2.922,-4.155,-2.237,-0.962,2.632,18.815,70.323,-70.323,191.641,-20.212
2811,16,-17.549,-28.751,24.007,-2.174,-4.155,-2.592,-0.321,3.129,17.533,71.018,-71.018,200.509,-29.08
2812,16,-21.44,-28.959,27.388,-2.174,-2.287,-2.592,-0.321,3.129,17.533,71.018,-71.018,176.039,-53.55
2813,16,-23.303,-28.015,29.329,-1.269,-0.598,-2.862,0.072,2.943,16.284,69.873,-69.873,158.668,-84.45
2814,16,-25.045,-27.11,31.151,-1.269,-0.598,-2.862,0.072,2.943,16.284,69.873,-69.873,158.668,-84.45
2815,16,-25.661,-26.071,31.934,-0.682,-0.598,-3.085,0.139,2.67,14.303,69.721,-69.721,164.234,-90.016
2816,16,-27.306,-23.235,34.072,-0.682,0.852,-3.085,0.139,2.67,14.303,69.721,-69.721,143.522,-110.728
2817,16,-27.841,-20.65,35.09,-0.142,2.113,-3.179,0.555,2.354,12.757,68.193,-68.193,127.848,-131.09
2818,16,-28.629,-18.975,36.327,-0.142,2.113,-3.179,0.555,2.354,12.757,68.193,-68.193,127.848,-131.09
2819,16,-28.17,-16.531,36.304,0.704,2.113,-2.964,1.081,2.034,11.125,61.274,-61.274,122.468,-125.71
2820,16,-27.756,-11.953,37.07,0.704,3.151,-2.964,1.081,2.034,11.125,61.274,-61.274,107.646,-140.533
2821,16,-26.703,-8.56,37.135,1.817,4.062,-2.544,1.373,1.689,9.231,50.096,-50.096,83.41,-142.32
2822,16,-26.197,-6.737,37.658,1.817,4.062,-2.544,1.373,1.689,9.231,48.257,-48.257,79.733,-138.643
2823,16,-24.715,-3.371,37.09,3.071,4.062,-1.949,1.67,1.713,7.503,31.008,-31.008,57.773,-116.684
2824,16,-21.985,2.045,36.759,3.071,4.787,-1.949,1.67,1.713,7.503,27.436,-27.436,40.265,-119.902
2825,16,-19.311,5.801,36.17,4.621,5.35,-1.188,2.038,1.321,5.173,5.058,-5.058,2.973,-98.681
2826,16,-17.328,7.479,36.016,4.621,5.35,-1.188,2.038,1.321,5.173,3.292,-3.292,-0.559,-95.148
2827,16,-14.781,11.438,35.299,6.746,5.35,-0.229,2.455,1.641,2.244,-21.998,21.998,-32.848,-68.783
2828,16,-9.171,17.105,34.314,6.746,5.559,-0.229,2.455,1.641,2.244,-25.018,25.018,-40.881,-70.209
2829,16,-4.04,20.729,33.377,9.51,5.365,0.805,2.283,2.216,-0.933,-43.993,43.993,-81.914,-44.941
2830,16,0.515,22.012,33.41,9.51,5.365,0.805,2.283,2.216,-0.933,-44.907,44.907,-85.542,-44.914
2831,16,4.466,26.048,32.197,12.818,5.365,1.861,1.78,2.933,-4.943,-58.398,58.398,-118.305,-23.713
2832,16,14.6,31.058,31.149,12.818,4.657,1.861,1.78,2.933,-4.943,-58.648,58.648,-110.398,-14.806
2833,16,22.747,33.84,30.157,15.972,3.471,2.806,1.33,4.058,-10.68,-67.966,67.966,-121.07,11.793
2834,16,30.479,34.136,30.735,15.972,3.471,2.806,1.33,4.058,-10.68,-67.198,67.198,-119.568,10.224
2835,16,35.121,37.573,29.048,15.972,3.471,3.438,0.144,3.929,-15.772,-72.253,72.253,-133.427,16.584
2836,16,47.88,40.623,27.963,16.73,1.792,3.438,0.144,3.929,-15.772,-70.323,70.323,-105.741,36.552
2837,16,55.345,42.072,26.667,15.557,0.005,3.544,-1.483,2.9,-13.102,-66.579,66.579,-73.492,53.825
2838,16,62.218,41.723,26.931,15.557,0.005,3.544,-1.483,2.9,-13.102,-66.047,66.047,-70.435,54.755
2839,16,66.084,44.151,24.8,15.557,0.005,3.212,-2.345,2.589,-8.747,-58.674,58.674,-56.049,39.646
2840,16,75.504,45.966,22.492,13.829,-1.431,3.212,-2.345,2.589,-8.747,-56.482,56.482,-29.611,57.315
2841,16,80.534,46.984,20.53,12.228,-2.313,2.806,-2.192,2.804,-5.527,-48.866,48.866,0.872,57.337
2842,16,84.864,46.796,20.131,12.228,-2.313,2.806,-2.192,2.804,-5.527,-48.909,48.909,2.604,59.238
2843,16,87.472,48.66,17.567,12.228,-2.313,2.555,-2.168,3.058,-2.991,-43.378,43.378,14.627,49.139
2844,16,93.048,50.419,14.309,10.352,-2.911,2.555,-2.168,3.058,-2.991,-41.681,41.681,28.512,56.237
2845,16,94.839,51.548,11.959,7.31,-3.179,2.255,-2.905,2.957,-0.268,-37.94,37.94,41.568,54.326
2846,16,96.397,51.858,11.057,7.31,-3.179,2.255,-2.905,2.957,-0.268,-37.94,37.94,42.428,55.186
2847,16,96.495,53.205,8.513,7.31,-3.179,1.743,-3.134,3.034,2.115,-31.535,31.535,55.491,42.629
2848,16,96.073,54.638,5.126,3.715,-2.993,1.743,-3.134,3.034,2.115,-27.608,27.608,53.016,40.155
2849,16,94.289,55.331,3.246,0.593,-2.513,1.299,-2.948,3.062,3.68,-6.449,6.449,56.055,20.983
2850,16,92.983,55.806,2.085,0.593,-2.513,1.299,-2.948,3.062,3.68,-6.449,6.449,55.29,20.218
2851,16,91.116,56.273,0.656,0.593,-2.513,0.965,-2.862,3.015,4.211,-2.281,2.281,62.477,10.734
2852,16,87.088,57.005,-1.362,-1.74,-1.87,0.965,-2.862,3.015,4.211,9.384,-9.384,51.505,-0.238
2853,16,84.002,57.327,-1.978,-3.528,-1.158,0.642,-2.905,3.086,3.469,22.361,-22.361,46.555,-21.327
2854,16,81.266,57.78,-2.963,-3.528,-1.158,0.642,-2.905,3.086,3.469,22.361,-22.361,44.685,-23.197
2855,16,79.243,57.726,-2.599,-3.528,-1.158,0.229,-3.187,3.321,2.335,27.528,-27.528,53.7,-34.849
2856,16,74.266,57.943,-2.55,-4.938,-0.587,0.229,-3.187,3.321,2.335,34.575,-34.575,43.264,-45.284
2857,16,70.627,57.888,-1.955,-6.347,-0.18,-0.244,-3.225,3.536,0.316,47.534,-47.534,45.919,-66.278
2858,16,66.857,58.229,-2.749,-6.347,-0.18,-0.244,-3.225,3.536,0.316,47.534,-47.534,43.365,-68.832
2859,16,64.962,57.719,-0.891,-6.347,-0.18,-0.637,-3.053,3.689,-2.388,52.447,-52.447,52.279,-79.573
2860,16,58.854,57.358,0.497,-7.619,-0.097,-0.637,-3.053,3.689,-2.388,58.213,-58.213,48.913,-82.939
2861,16,54.126,56.855,1.315,-8.615,-0.469,-0.928,-3.043,3.857,-5.01,61.848,-61.848,57.963,-88.429
2862,16,48.89,57.015,0.197,-8.615,-0.469,-0.928,-3.043,3.857,-5.01,61.848,-61.848,55.068,-91.325
2863,16,46.842,55.926,2.604,-8.615,-0.469,-1.199,-3.254,4.249,-6.738,64.651,-64.651,60.638,-96.965
2864,16,39.112,54.674,3.96,-9.516,-0.966,-1.199,-3.254,4.249,-6.738,62.35,-62.35,61.547,-86.854
2865,16,33.756,53.526,4.953,-10.013,-1.45,-1.47,-3.259,4.45,-9.207,60.624,-60.624,63.772,-77.726
2866,16,31.138,52.957,5.52,-10.013,-1.45,-1.47,-3.259,4.45,-9.207,59.07,-59.07,60.49,-74.788
2867,16,26.06,51.67,6.723,-10.013,-1.45,-1.658,-2.876,3.876,-10.652,58.346,-58.346,59.229,-73.157
2868,16,18.802,49.544,8.777,-9.661,-1.998,-1.658,-2.876,3.876,-10.652,55.94,-55.94,62.204,-60.554
2869,16,14.602,47.862,10.225,-8.639,-2.562,-1.703,-2.225,3.484,-10.192,52.348,-52.348,66.128,-42.262
2870,16,12.54,47.038,11.004,-8.639,-2.562,-1.703,-2.225,3.484,-10.192,51.3,-51.3,64.958,-39.243
2871,16,8.826,45.317,12.624,-8.639,-2.562,-1.684,-1.335,3.292,-8.503,49.31,-49.31,63.104,-33.137
2872,16,3.886,42.665,15.201,-7.34,-2.957,-1.684,-1.335,3.292,-8.503,48.153,-48.153,67.436,-24.177
2873,16,1.341,40.853,16.932,-5.995,-3.153,-1.578,-0.775,3.039,-7.264,44.586,-44.586,69.63,-10.538
2874,16,0.073,39.964,17.823,-5.995,-3.153,-1.578,-0.775,3.039,-7.264,44.926,-44.926,70.284,-8.663
2875,16,-2.13,38.218,19.607,-5.995,-3.153,-1.578,-0.33,3.134,-6.627,44.586,-44.586,71.986,-5.359
2876,16,-4.949,35.664,22.303,-4.763,-3.169,-1.476,-0.33,3.134,-6.627,38.809,-38.809,70.267,-1.066
2877,16,-6.249,34.045,24.08,-3.659,-3.089,-1.415,-0.201,3.211,-5.541,33.81,-33.81,72.653,4.124
2878,16,-6.907,33.249,24.976,-3.659,-3.089,-1.415,-0.201,3.211,-5.541,34.2,-34.2,73.913,5.136
2879,16,-7.958,31.727,26.768,-3.659,-3.089,-1.415,-0.273,3.259,-5.173,34.911,-34.911,76.459,6.921
2880,16,-9.16,29.557,29.443,-2.628,-2.916,-1.416,-0.273,3.259,-5.173,30.146,-30.146,75.096,5.119
2881,16,-9.476,28.255,31.245,-1.728,-2.708,-1.483,-0.196,3.283,-4.689,27.524,-27.524,78.933,3.354
2882,16,-9.652,27.608,32.14,-1.728,-2.708,-1.483,-0.196,3.283,-4.689,27.757,-27.757,80.127,3.978
2883,16,-9.781,26.387,33.94,-1.728,-2.708,-1.483,-0.096,3.311,-4.359,28.093,-28.093,82.379,5.163
2884,16,-9.671,24.649,36.637,-0.883,-2.501,-1.582,-0.096,3.311,-4.359,25.063,-25.063,82.918,0.36
2885,16,-9.002,23.649,38.418,0.238,-2.225,-1.656,0.024,3.206,-3.68,20.544,-20.544,84.657,-3.155
2886,16,-8.682,23.143,39.3,0.238,-2.225,-1.656,0.024,3.206,-3.68,20.44,-20.44,85.486,-2.538
2887,16,-7.684,22.215,41.049,0.238,-2.225,-1.656,0.206,3.249,-3.881,19.955,-19.955,86.843,-1.218
2888,16,-5.687,20.905,43.622,1.579,-1.913,-1.748,0.206,3.249,-3.881,13.52,-13.52,85.331,-6.698
2889,16,-3.481,20.228,45.32,3.168,-1.488,-1.843,0.301,3.316,-4.13,4.961,-4.961,82.764,-12.378
2890,16,-2.395,19.873,46.153,3.168,-1.488,-1.843,0.301,3.316,-4.13,4.197,-4.197,82.856,-11.427
2891,16,0.24,19.261,47.802,3.168,-1.488,-1.843,0.392,3.445,-4.953,2.267,-2.267,82.56,-9.358
2892,16,4.859,18.415,50.232,4.862,-1.011,-1.933,0.392,3.445,-4.953,-7.319,7.319,77.717,-15.706
2893,16,8.933,17.977,51.8,6.681,-0.626,-1.913,0.412,3.718,-5.804,-13.203,13.203,69.008,-17.182
2894,16,10.954,17.722,52.564,6.681,-0.626,-1.913,0.412,3.718,-5.804,-13.795,13.795,68.074,-15.746
2895,16,15.359,17.25,54.042,6.681,-0.626,-1.913,0.421,3.847,-6.436,-15.122,15.122,65.758,-12.755
2896,16,22.471,16.51,56.152,8.051,-0.296,-1.806,0.421,3.847,-6.436,-18.139,18.139,56.244,-10.198
2897,16,27.515,16.083,57.44,8.696,-0.037,-1.61,0.546,3.575,-6.288,-22.793,22.793,42.042,-5.787
2898,16,30.019,15.836,58.066,8.696,-0.037,-1.61,0.546,3.575,-6.288,-23.625,23.625,40.257,-4.243
2899,16,34.913,15.386,59.225,8.696,-0.037,-1.61,0.55,3.579,-6.699,-25.239,25.239,36.612,-1.431
2900,16,42.052,14.735,60.805,8.435,0.174,-1.272,0.55,3.579,-6.699,-31.404,31.404,21.632,8.248
2901,16,46.178,14.447,61.741,7.433,0.38,-0.924,0.416,3.469,-6.393,-37.398,37.398,4.556,15.147
2902,16,48.237,14.284,62.201,7.433,0.38,-0.924,0.416,3.469,-6.393,-38.022,38.022,2.871,15.96
2903,16,51.915,14.048,63.101,7.433,0.38,-0.924,0.354,3.129,-6.178,-39.055,39.055,-0.099,17.12
2904,16,56.776,13.794,64.425,5.984,0.649,-0.614,0.354,3.129,-6.178,-44.066,44.066,-14.271,22.991
2905,16,58.906,13.85,65.406,4.024,1.052,-0.325,0.139,3.115,-7.283,-45.715,45.715,-29.932,23.458
2906,16,59.972,13.864,65.895,4.024,1.052,-0.325,0.139,3.115,-7.283,-45.884,45.884,-30.647,23.417
2907,16,61.463,13.991,66.976,4.024,1.052,-0.325,-0.273,3.196,-7.369,-45.99,45.99,-31.465,23.025
2908,16,62.762,14.323,68.755,1.733,1.55,-0.144,-0.273,3.196,-7.369,-36.886,36.886,-43.402,20.477
2909,16,62.344,14.679,70.188,-0.633,2.035,-0.116,-0.656,3.259,-7.943,-24.685,24.685,-50.2,12.194
2910,16,62.141,14.859,70.901,-0.633,2.035,-0.116,-0.656,3.259,-7.943,-24.452,24.452,-49.782,11.68
2911,16,60.992,15.229,72.411,-0.633,2.035,-0.116,-1.101,3.235,-9.388,-23.866,23.866,-48.48,10.639
2912,16,58.185,15.853,74.782,-3.323,2.297,-0.275,-1.101,3.235,-9.388,-7.665,7.665,-46.441,1.671
2913,16,55.201,16.466,76.689,-5.848,2.376,-0.643,-1.258,3.455,-10.36,11.058,-11.058,-34.839,-11.104
2914,16,53.317,16.385,77.337,-5.848,2.376,-0.643,-1.258,3.455,-10.36,11.295,-11.295,-33.782,-10.995
2915,16,49.572,16.731,79.074,-5.848,2.376,-0.643,-1.101,3.656,-11.35,12.313,-12.313,-31.064,-12.351
2916,16,43.214,17.293,81.727,-7.747,2.314,-1.094,-1.101,3.656,-11.35,27.742,-27.742,-15.82,-25.787
2917,16,39.305,18.277,83.951,-8.615,2.084,-1.536,-0.517,3.431,-11.365,35.091,-35.091,2.838,-36.527
2918,16,36.203,17.719,84.452,-8.615,2.084,-1.536,-0.517,3.431,-11.365,35.293,-35.293,4.439,-35.734
2919,16,31.771,17.987,86.211,-8.615,2.084,-1.536,0.325,2.866,-11.341,36.46,-36.46,7.214,-37.627
2920,16,25.482,18.344,88.785,-7.85,1.576,-1.816,0.325,2.866,-11.341,41.561,-41.561,23.495,-41.749
2921,16,23.308,18.906,90.599,-5.505,0.856,-1.921,1.192,2.708,-9.762,33.739,-33.739,39.231,-34.619
2922,16,21.175,18.29,91.132,-5.505,0.856,-1.921,1.192,2.708,-9.762,33.933,-33.933,40.661,-33.963
2923,16,19.086,18.185,92.618,-5.505,0.856,-1.921,1.704,2.402,-8.441,34.394,-34.394,41.937,-34.532
2924,16,17.113,17.856,94.74,-2.727,0.295,-1.872,1.704,2.402,-8.441,20.248,-20.248,49.183,-26.268
2925,16,17.222,17.571,96.117,-0.353,-0.012,-1.859,1.555,2.46,-7.695,8.082,-8.082,54.254,-20.022
2926,16,17.132,17.313,96.761,-0.353,-0.012,-1.859,1.555,2.46,-7.695,8.007,-8.007,54.462,-19.512
2927,16,17.878,16.934,98.066,-0.353,-0.012,-1.859,1.948,2.598,-7.833,7.655,-7.655,54.201,-18.366
2928,16,20.072,16.31,99.94,2.301,-0.08,-1.764,1.948,2.598,-7.833,-7.336,7.336,52.4,-13.275
2929,16,22.192,15.334,100.862,4.818,-0.075,-1.609,1.656,2.67,-8.766,-21.7,21.7,46.534,-5.666
2930,16,24.333,15.65,101.633,4.818,-0.075,-1.609,1.656,2.67,-8.766,-22.165,22.165,44.881,-5.461
2931,16,27.135,15.154,102.723,4.818,-0.075,-1.609,1.656,2.885,-9.618,-23.26,23.26,42.875,-3.086
2932,16,32.693,14.326,104.129,6.525,-0.157,-1.449,1.44,2.885,-9.618,-26.794,26.794,38.006,6.182
2933,16,35.471,13.005,104.605,6.525,-0.157,-1.449,0.656,2.986,-9.618,-29.212,29.212,32.986,10.835
2934,16,38.524,13.439,105.38,7.173,-0.151,-1.325,0.656,2.986,-9.111,-31.302,31.302,27.465,13.672
2935,16,42.488,12.807,106.142,7.173,-0.151,-1.325,0.656,-94.483,-83.267,-32.941,32.941,23.766,16.528
2936,16,23.002,9.453,116.126,-24.672,3.112,-11.41,-20.815,-94.483,-83.267,100.25,-100.25,124.08,-175.92
2937,16,14.967,11.853,127.408,-24.672,3.112,-11.41,79.175,-146.005,-83.267,100.25,-100.25,130.564,-169.436
2938,16,0.49,9.373,133.36,-31.672,4.631,-23.556,79.175,-146.005,-42.138,100.25,-100.25,112.418,-187.581
2939,16,-15.114,13.342,146.527,-31.672,4.631,-23.556,79.175,4.005,15.619,100.25,-100.25,106.798,-193.202
2940,16,-29.241,7.91,148.457,-16.768,-6.117,0.154,72.347,4.005,15.619,31.611,-31.611,98.436,72.993
2941,16,-34.311,6.063,149.607,-16.768,-6.117,0.154,-0.718,5.723,15.619,40.88,-40.88,116.974,54.455
2942,16,-44.247,3.189,150.375,-18.156,-4.656,1.914,-0.718,5.723,-1.584,25.602,-25.602,86.417,85.011
2943,16,-54.513,0.371,151.889,-18.156,-4.656,1.914,-0.718,5.68,0.646,26.321,-26.321,87.857,83.571
2944,16,-66.662,-3.142,154.552,-14.334,-4.162,1.939,-1.048,5.68,0.646,26.015,-26.015,83.571,80.51
2945,16,-71.929,-4.805,155.958,-14.334,-4.162,1.939,-1.01,4.838,0.646,26.015,-26.015,75.556,72.495
2946,16,-78.131,-6.252,157.376,-13.046,-3.43,2.531,-1.01,4.838,1.201,18.612,-18.612,45.706,72.259
2947,16,-85.583,-8.085,159.402,-13.046,-3.43,2.531,-1.01,4.948,1.306,18.612,-18.612,39.615,66.169
2948,16,-96.265,-10.742,162.346,-12.422,-2.871,2.989,-0.89,4.948,1.306,12.886,-12.886,17.117,66.574
2949,16,-101.881,-12.312,163.986,-12.422,-2.871,2.989,-0.627,4.91,1.306,12.886,-12.886,4.904,54.361
2950,16,-106.668,-13.071,165.347,-11.823,-2.16,3.227,-0.627,4.91,0.876,9.916,-9.916,-15.942,45.392
2951,16,-113.535,-14.41,167.43,-11.823,-2.16,3.227,-0.627,4.718,0.56,9.916,-9.916,-22.985,38.349
2952,16,-123.455,-16.331,170.398,-11.378,-1.564,3.375,-0.809,4.718,0.56,8.066,-8.066,-38.862,29.876
2953,16,-129.384,-17.479,172.296,-11.378,-1.564,3.375,-0.799,4.804,0.56,8.066,-8.066,-40.6,28.138
2954,16,-133.099,-18.005,173.385,-10.839,-0.967,3.443,-0.799,4.804,0.306,7.213,-7.213,-50.827,21.32
2955,16,-139.456,-18.946,175.422,-10.839,-0.967,3.443,-0.799,4.752,0.349,7.213,-7.213,-50.827,21.32
2956,16,-148.422,-20.367,178.275,-10.229,-0.373,3.416,-0.723,4.752,0.349,7.546,-7.546,-58.653,12.162
2957,16,-154.102,-20.97,-179.786,-10.229,-0.373,3.416,-0.641,4.689,0.349,7.546,-7.546,-58.653,12.162
2958,16,-157.004,-21.638,-178.935,-9.564,0.193,3.335,-0.641,4.689,0.354,8.558,-8.558,-64.709,2.058
2959,16,-162.61,-22.363,-177.079,-9.564,0.193,3.335,-0.641,4.594,0.407,8.558,-8.558,-64.709,2.058
2960,16,-170.34,-23.588,-174.531,-8.835,0.722,3.198,-0.593,4.594,0.407,8.469,-8.469,-72.451,-5.327
2961,16,-175.253,-23.861,-172.89,-8.835,0.722,3.198,-0.507,4.666,0.407,-6.643,6.643,-102.675,24.896
2962,16,-177.652,-24.864,-172.132,-8.087,1.21,3.035,-0.507,4.666,0.445,-8.521,8.521,-113.402,21.684
2963,16,177.584,-25.688,-170.575,-8.087,1.21,3.035,-0.507,4.666,0.364,-17.105,17.105,-130.57,38.852
2964,16,170.997,-27.102,-168.344,-7.391,1.628,2.867,-0.512,4.508,0.364,-19.657,19.657,-140.546,36.897
2965,16,166.859,-27.275,-167.033,-7.391,1.628,2.867,-0.541,4.512,0.364,-35.482,35.482,-172.197,68.547
2966,16,164.602,-28.519,-166.136,-6.9,2.041,2.632,-0.541,4.512,0.44,-35.655,35.655,-173.536,58.077
2967,16,160.367,-29.401,-164.639,-6.9,2.041,2.632,-0.541,4.512,0.579,-35.655,35.655,-173.536,58.077
2968,16,153.065,-30.386,-161.217,-6.274,2.422,2.395,-0.512,4.56,0.579,-33.562,33.562,-173.045,46.691
2969,16,148.34,-29.98,-158.922,-6.274,2.422,2.395,-0.536,4.546,0.579,-33.562,33.562,-173.045,46.691
2970,16,145.39,-30.96,-157.07,-5.567,2.738,2.142,-0.536,4.546,0.421,-33.943,33.943,-171.238,35.874
2971,16,140.636,-31.024,-154.463,-5.567,2.738,2.142,-0.536,4.546,0.426,-33.943,33.943,-171.238,35.874
2972,16,134.511,-30.939,-150.861,-4.859,3.023,1.861,-0.569,4.68,0.426,-33.969,33.969,-168.286,24.765
2973,16,131.069,-30.198,-149.077,-4.859,3.023,1.861,-0.426,2.46,0.426,-33.969,33.969,-168.286,24.765
2974,16,128.327,-30.739,-147.2,-4.927,3.252,1.605,-0.426,2.46,0.124,-30.433,30.433,-165.166,15.102
2975,16,124.187,-30.492,-144.731,-4.927,3.252,1.605,-0.426,2.46,0.038,-30.433,30.433,-165.166,15.102
2976,16,117.45,-30.091,-140.959,-5.532,3.462,1.382,-0.416,0.593,0.038,-24.611,24.611,-162.571,6.511
2977,16,113.999,-29.157,-139.495,-5.532,3.462,1.382,-0.474,0.096,0.038,-24.611,24.611,-162.571,6.511
2978,16,110.549,-29.491,-137.193,-5.888,3.598,1.113,-0.474,0.096,-0.086,-19.476,19.476,-154.384,1.276
2979,16,105.924,-28.939,-134.703,-5.888,3.598,1.113,-0.474,0.096,-0.526,-19.476,19.476,-148.655,7.005
2980,16,98.568,-28.366,-130.946,-6.336,3.726,0.659,-10.216,-3.737,-0.526,-11.562,11.562,-136.15,-3.18
2981,16,95.176,-28.576,-130.685,-6.336,3.726,0.659,-83.673,-17.495,-0.526,-11.562,11.562,-126.026,6.944
2982,16,89.824,-30.612,-127.183,-9.03,3.396,-4.391,-83.673,-17.495,12.714,57.388,-57.388,11.479,-108.072
2983,16,83.336,-32.84,-124.361,-9.03,3.396,-4.391,-83.673,-17.495,-2.809,57.388,-57.388,19.726,-99.825
2984,16,73.45,-36.428,-120.826,-9.531,1.929,-5.01,0.498,1.469,-2.809,65.124,-65.124,60.38,-90.117
2985,16,69.02,-38.761,-120.616,-9.531,1.929,-5.01,0.191,-0.335,-2.809,65.124,-65.124,75.538,-74.959
2986,16,62.875,-39.86,-117.02,-10.281,0.844,-5.312,0.191,-0.335,-0.517,68.906,-68.906,99.331,-66.293
2987,16,55.401,-41.957,-114.136,-10.281,0.844,-5.312,0.191,-0.335,-1.584,68.906,-68.906,99.331,-66.293
2988,16,44.203,-45.196,-109.78,-10.125,-0.157,-5.449,-0.359,-0.871,-1.584,70.61,-70.61,117.029,-55.412
2989,16,39.012,-47.67,-108.342,-10.125,-0.157,-5.449,4.484,-7.584,-1.584,70.61,-70.61,117.029,-55.412
2990,16,30.957,-47.188,-102.911,-10.336,1.597,-6.206,4.484,-7.584,-19.145,80.078,-80.078,110.915,-99.396
2991,16,21.316,-47.692,-97.383,-10.336,1.597,-6.206,4.484,-7.584,-17.629,80.078,-80.078,110.915,-99.396
2992,16,1.943,-42.23,-84.023,-12.123,8.051,-9.302,6.158,-10.451,-17.629,102.5,-102.5,64.286,-235.714
2993,16,-5.282,-40.791,-79.805,-12.123,8.051,-9.302,5.091,-1.488,-17.629,102.5,-102.5,64.286,-235.714
2994,16,-14.289,-34.591,-73.276,-11.511,7.278,-10.914,5.091,-1.488,-9.116,102.5,-102.5,74.602,-225.398
2995,16,-21.028,-32.039,-67.648,-11.511,7.278,-10.914,5.091,-1.488,-9.833,102.5,-102.5,74.602,-225.398
2996,16,-22.513,-20.354,-61.334,3.72,6.22,-9.469,23.39,-0.962,-9.833,61.4,-61.4,89.713,-210.287
2997,16,-20.871,-17.078,-59.523,3.72,6.22,-9.469,19.93,15.308,-9.833,61.4,-61.4,89.713,-210.287
2998,16,-20.828,-14.28,-57.001,3.096,4.404,-5.031,19.93,15.308,-10.771,64.522,-64.522,115.66,-184.34
2999,16,-19.154,-11.741,-54.605,3.096,4.404,-5.031,19.93,15.308,-6.087,64.522,-64.522,115.66,-184.34
3000,16,-20.833,-10.241,-54.158,-1.185,0.665,-0.099,4.996,26.629,-6.087,32.634,-32.634,62.497,-24.347
3001,16,-21.508,-10.107,-53.921,-1.185,0.665,-0.099,-1.254,9.886,-6.087,33.612,-33.612,64.454,-26.304
3002,16,-22.141,-9.429,-53.192,-1.03,0.497,-0.766,-1.254,9.886,-2.852,41.247,-41.247,83.657,-40.728
3003,16,-22.842,-9.167,-52.376,-1.03,0.497,-0.766,-1.254,9.886,-2.852,41.661,-41.661,84.485,-41.556
3004,16,-23.54,-8.714,-51.236,-0.164,-0.401,-0.503,0.818,0.11,-2.732,34.058,-34.058,90.768,-22.182
3005,16,-23.686,-8.66,-50.848,-0.164,-0.401,-0.503,-0.397,-0.679,-2.732,34.375,-34.375,91.403,-22.817
3006,16,-23.404,-9.159,-50.133,0.942,-1.288,-0.01,-0.397,-0.679,-2.823,22.819,-22.819,92.024,1.916
3007,16,-23.225,-9.323,-49.493,0.942,-1.288,-0.01,-0.397,-0.679,-2.823,22.789,-22.789,91.964,1.976
3008,16,-21.547,-11.02,-48.466,2.139,-1.988,0.295,-0.421,0.239,-4.886,13.009,-13.009,94.378,19.559
3009,16,-20.624,-11.31,-48.231,2.139,-1.988,0.295,0.335,2.718,-4.886,12.116,-12.116,92.591,21.346
3010,16,-19.533,-12.666,-47.508,2.931,-2.471,0.339,0.335,2.718,-11.69,7.522,-7.522,98.227,29.528
3011,16,-18.368,-13.036,-47.002,2.931,-2.471,0.339,0.335,2.718,-11.69,6.607,-6.607,96.397,31.358
3012,16,-16.119,-15.796,-46.379,2.386,-2.506,0.689,4.996,3.742,-22.907,4.914,-4.914,88.055,40.673
