packet_timestamp,statemachine,angle_roll,angle_pitch,angle_yaw,gyro_x,gyro_y,gyro_z,acc_x,acc_y,acc_z,rudder1,rudder2,rudder3,rudder4
4773,16,11.357,28.418,28.853,1.867,-2.542,-0.701,0.488,2.172,3.909,-11.396,11.396,55.271,21.782
4774,16,12.376,27.734,29.207,2.09,-2.172,-0.663,0.488,2.172,3.909,-13.718,13.718,49.542,18.842
4775,16,13.815,26.162,30.076,2.166,-1.811,-0.704,0.407,2.082,4.039,-14.19,14.19,50.299,20.721
4776,16,14.207,25.452,30.258,2.166,-1.811,-0.704,0.407,2.082,4.039,-15.3,15.3,46.976,17.361
4777,16,15.186,24.66,30.756,2.166,-1.811,-0.704,0.569,2.067,3.967,-16.03,16.03,47.329,19.135
4778,16,15.679,24.314,31.018,2.194,-1.459,-0.747,0.569,2.067,3.967,-15.815,15.815,43.484,13.853
4779,16,17.703,23.19,32.061,2.272,-1.127,-0.742,0.675,2.096,4,-16.182,16.182,43.655,15.493
4780,16,18.202,22.873,32.331,2.272,-1.127,-0.742,0.675,2.096,4,-17.126,17.126,38.741,12.799
4781,16,19.243,22.46,32.858,2.272,-1.127,-0.742,0.727,2.058,4.158,-17.452,17.452,38.584,13.949
4782,16,20.256,22.148,33.195,2.356,-0.836,-0.706,0.727,2.058,4.158,-18.62,18.62,33.288,11.643
4783,16,20.835,21.972,33.645,2.418,-0.567,-0.649,0.837,2.163,3.67,-18.793,18.793,33.137,12.182
4784,16,22.471,21.73,34.428,2.418,-0.567,-0.649,0.837,2.163,3.67,-20.532,20.532,26.471,11.236
4785,16,23.613,21.662,34.95,2.418,-0.567,-0.649,0.885,2.168,3.11,-20.431,20.431,26.823,11.185
4786,16,24.208,21.668,35.209,2.599,-0.274,-0.577,0.885,2.168,3.11,-22.325,22.325,20.603,8.918
4787,16,25.4,21.688,35.726,2.836,-0.001,-0.463,0.938,2.244,2.402,-22.511,22.511,20.1,9.16
4788,16,27.388,21.976,36.494,2.836,-0.001,-0.463,0.938,2.244,2.402,-25.361,25.361,12.88,8.608
4789,16,28.749,22.247,36.989,2.836,-0.001,-0.463,0.957,2.421,1.459,-25.32,25.32,11.937,7.501
4790,16,29.449,22.423,37.233,2.969,0.241,-0.314,0.957,2.421,1.459,-27.844,27.844,4.482,7.479
4791,16,30.854,22.771,37.723,3.018,0.425,-0.156,0.938,2.546,0.311,-27.818,27.818,3.972,6.868
4792,16,32.994,23.491,38.423,3.018,0.425,-0.156,0.938,2.546,0.311,-30.269,30.269,-4.457,7.263
4793,16,34.398,24.023,38.871,3.018,0.425,-0.156,0.914,2.555,-0.656,-29.627,29.627,-3.605,5.545
4794,16,35.088,24.32,39.094,2.941,0.576,0.015,0.914,2.555,-0.656,-31.233,31.233,-10.15,6.958
4795,16,36.475,24.898,39.538,2.716,0.757,0.183,0.828,2.536,-1.833,-30.94,30.94,-10.343,5.593
4796,16,38.369,25.945,40.201,2.716,0.757,0.183,0.828,2.536,-1.833,-31.717,31.717,-18.45,5.087
4797,16,39.528,26.692,40.661,2.716,0.757,0.183,0.699,2.622,-3.302,-30.756,30.756,-17.024,2.673
4798,16,40.055,27.088,40.902,2.312,0.958,0.325,0.699,2.622,-3.302,-30.213,30.213,-23.308,2.314
4799,16,41.124,27.86,41.39,1.781,1.177,0.414,0.608,2.689,-4.287,-29.63,29.63,-23.021,0.265
4800,16,42.33,29.146,42.216,1.781,1.177,0.414,0.608,2.689,-4.287,-27.543,27.543,-29.195,-3.646
4801,16,43.002,30.01,42.81,1.781,1.177,0.414,0.589,2.661,-4.431,-26.327,26.327,-27.169,-6.485
4802,16,43.265,30.456,43.128,1.185,1.366,0.469,0.589,2.661,-4.431,-23.641,23.641,-30.921,-9.047
4803,16,43.805,31.324,43.765,0.638,1.547,0.507,0.66,2.742,-5.417,-22.886,22.886,-30.301,-11.448
4804,16,44.23,32.696,44.825,0.638,1.547,0.507,0.66,2.742,-5.417,-19.956,19.956,-34.474,-16.41
4805,16,44.419,33.633,45.57,0.638,1.547,0.507,0.593,2.905,-6.924,-18.598,18.598,-32.118,-19.488
4806,16,44.461,34.116,45.961,0.147,1.775,0.569,0.593,2.905,-6.924,-16.489,16.489,-36.556,-22.54
4807,16,44.564,35.068,46.752,-0.214,2.022,0.634,0.488,3.359,-8.57,-15.644,15.644,-35.827,-25.19
4808,16,44.522,36.632,48.06,-0.214,2.022,0.634,0.488,3.359,-8.57,-13.892,13.892,-41.745,-30.894
4809,16,44.462,37.713,48.983,-0.214,2.022,0.634,0.301,3.728,-10.269,-12.329,12.329,-39.035,-34.437
4810,16,44.411,38.281,49.466,-0.529,2.282,0.707,0.301,3.728,-10.269,-11.175,11.175,-44.178,-37.888
4811,16,43.596,40.262,51.106,-1.059,2.637,0.771,0.014,4.192,-12.188,-10.196,10.196,-43.368,-40.997
4812,16,43.944,41.313,52.121,-1.059,2.637,0.771,0.014,4.192,-12.188,-6.716,6.716,-48.786,-49.743
4813,16,43.658,42.643,53.334,-1.059,2.637,0.771,-0.196,4.321,-12.408,-5.593,5.593,-47.955,-53.406
4814,16,43.498,43.346,53.988,-1.498,2.976,0.786,-0.196,4.321,-12.408,-2.996,2.996,-52.758,-59.82
4815,16,43.198,44.737,55.298,-1.781,3.352,0.766,-0.301,4.187,-13.03,-1.83,1.83,-51.924,-63.648
4816,16,42.813,47.039,57.611,-1.781,3.352,0.766,-0.301,4.187,-13.03,1.788,-1.788,-55.358,-75.889
4817,16,42.727,48.638,59.308,-1.781,3.352,0.766,-0.263,3.254,-13.958,3.194,-3.194,-54.212,-80.365
4818,16,42.757,49.47,60.226,-1.745,3.74,0.732,-0.263,3.254,-13.958,4.197,-4.197,-58.223,-89.112
4819,16,42.226,52.316,63.171,-1.662,3.858,0.708,-0.383,2.862,-12.135,5.738,-5.738,-56.776,-93.828
4820,16,43.412,53.63,65.176,-1.662,3.858,0.708,-0.383,2.862,-12.135,8.123,-8.123,-55.176,-103.431
4821,16,43.902,55.245,67.289,-1.662,3.858,0.708,-0.321,3.043,-11.834,9.836,-9.836,-53.131,-108.24
4822,16,44.191,56.024,68.368,-1.564,3.725,0.663,-0.321,3.043,-11.834,10.781,-10.781,-48.989,-109.835
4823,16,44.609,58.668,71.698,-1.224,3.643,0.647,-0.11,3.225,-11.231,12.287,-12.287,-47.145,-114.015
4824,16,46.336,59.785,74.077,-1.224,3.643,0.647,-0.11,3.225,-11.231,10.787,-10.787,-46.783,-114.452
4825,16,47.598,61.202,76.501,-1.224,3.643,0.647,-0.062,3.259,-11.374,10.787,-10.787,-46.783,-114.452
4826,16,48.337,61.885,77.741,-0.715,3.51,0.656,-0.062,3.259,-11.374,8.121,-8.121,-45.12,-112.31
4827,16,49.952,63.229,80.349,-0.019,3.377,0.693,-0.11,3.287,-10.958,8.121,-8.121,-45.12,-112.31
4828,16,53.126,65.116,84.379,-0.019,3.377,0.693,-0.11,3.287,-10.958,4.177,-4.177,-44.15,-109.476
4829,16,55.615,66.299,87.226,-0.019,3.377,0.693,-0.215,3.393,-10.834,4.177,-4.177,-43.481,-108.807
4830,16,56.993,66.868,88.677,0.673,3.22,0.77,-0.215,3.393,-10.834,-0.244,0.244,-42.511,-104.002
4831,16,59.945,67.958,91.775,1.191,3.046,0.833,-0.584,3.455,-11.169,-0.244,0.244,-40.89,-102.381
4832,16,64.938,69.441,96.508,1.191,3.046,0.833,-0.584,3.455,-11.169,-3.618,3.618,-40.381,-98.729
4833,16,67.378,70.22,98.813,1.191,3.046,0.833,-1.053,3.661,-11.13,-3.618,3.618,-34.88,-93.228
4834,16,70.277,70.721,101.46,1.369,2.788,0.871,-1.053,3.661,-11.13,-4.987,4.987,-29.78,-86.21
4835,16,74.072,71.473,104.96,1.324,2.5,0.842,-1.426,3.737,-10.264,-4.987,4.987,-26.57,-83
4836,16,79.496,72.375,109.941,1.324,2.5,0.842,-1.426,3.737,-10.264,-4.39,4.39,-20.893,-78.815
4837,16,82.226,72.852,112.445,1.324,2.5,0.842,-1.536,3.89,-9.857,-4.39,4.39,-14.296,-72.218
4838,16,84.951,73.056,114.956,1.288,2.269,0.757,-1.536,3.89,-9.857,-3.157,3.157,-6.27,-68.4
4839,16,88.649,73.411,118.36,1.163,2.003,0.648,-1.775,3.938,-9.747,-3.157,3.157,-2.676,-64.806
4840,16,93.498,73.738,122.847,1.163,2.003,0.648,-1.775,3.938,-9.747,-1.162,1.162,5.024,-62.592
4841,16,95.885,73.895,125.1,1.163,2.003,0.648,-2.115,4.144,-9.35,-1.162,1.162,11.022,-56.594
4842,16,97.852,73.884,126.963,0.913,1.762,0.491,-2.115,4.144,-9.35,2.047,-2.047,20.315,-55.131
4843,16,100.556,73.91,129.548,0.523,1.549,0.257,-2.149,4.125,-9.049,2.047,-2.047,22.979,-52.466
4844,16,103.501,73.739,132.624,0.523,1.549,0.257,-2.149,4.125,-9.049,6.926,-6.926,32.382,-54.782
4845,16,104.768,73.57,134.112,0.523,1.549,0.257,-2.11,4.216,-8.757,6.926,-6.926,35.91,-51.253
4846,16,105.559,73.41,135.042,0.069,1.321,-0.02,-2.11,4.216,-8.757,12.657,-12.657,46.811,-54.201
4847,16,106.614,73.144,136.413,-0.554,1.091,-0.322,-2.091,4.273,-8.355,12.657,-12.657,47.743,-53.269
4848,16,106.748,72.548,137.517,-0.554,1.091,-0.322,-2.091,4.273,-8.355,19.541,-19.541,57.85,-58.235
4849,16,106.544,72.092,138.065,-0.554,1.091,-0.322,-1.799,4.158,-7.695,19.541,-19.541,58.179,-57.906
4850,16,106.177,71.851,138.141,-0.993,0.903,-0.584,-1.799,4.158,-7.695,25.011,-25.011,66.993,-62.195
4851,16,105.578,71.352,138.415,-1.189,0.789,-0.718,-1.617,4.177,-7.575,25.011,-25.011,66.289,-62.899
4852,16,104.203,70.528,138.5,-1.189,0.789,-0.718,-1.617,4.177,-7.575,27.669,-27.669,69.779,-66.12
4853,16,103.285,69.931,138.548,-1.189,0.789,-0.718,-1.603,4.398,-7.608,27.669,-27.669,68.79,-67.11
4854,16,102.309,69.671,138.114,-1.331,0.478,-0.865,-1.603,4.398,-7.608,30.215,-30.215,75.966,-67.284
4855,16,100.921,69.088,137.751,-1.339,0.075,-0.996,-1.589,4.417,-7.015,30.215,-30.215,74.593,-68.657
4856,16,98.039,68.163,136.347,-1.339,0.075,-0.996,-1.589,4.417,-7.015,31.895,-31.895,80.917,-68.884
4857,16,96.482,67.47,135.676,-1.339,0.075,-0.996,-1.526,4.35,-6.556,31.895,-31.895,79.461,-70.34
4858,16,94.931,67.176,134.643,-1.276,-0.272,-1.113,-1.526,4.35,-6.556,33.046,-33.046,85.964,-69.696
4859,16,92.844,66.487,133.47,-0.984,-0.573,-1.25,-1.526,4.316,-6.13,33.046,-33.046,84.126,-71.534
4860,16,89.588,65.323,131.279,-0.984,-0.573,-1.25,-1.388,4.316,-6.13,33.291,-33.291,90.677,-71.801
4861,16,88.005,64.467,130.211,-0.984,-0.573,-1.25,-1.282,4.297,-5.929,33.291,-33.291,87.813,-74.664
4862,16,86.499,64.051,129.016,-0.611,-0.861,-1.358,-1.282,4.297,-5.929,32.785,-32.785,93.453,-74.458
4863,16,84.57,63.159,127.558,-0.164,-1.145,-1.449,-1.282,4.177,-5.972,32.785,-32.785,92.013,-75.898
4864,16,81.835,61.686,125.095,-0.164,-1.145,-1.449,-1.177,4.177,-5.972,31.68,-31.68,98.107,-74.331
4865,16,80.606,60.652,123.864,-0.164,-1.145,-1.449,-1.297,4.302,-5.79,31.68,-31.68,95.759,-76.679
4866,16,79.353,60.1,122.677,0.151,-1.384,-1.537,-1.297,4.302,-5.79,31.208,-31.208,100.602,-76.256
4867,16,77.209,57.976,120.012,0.467,-1.612,-1.648,-1.297,4.23,-5.235,31.208,-31.208,99.823,-77.035
4868,16,75.789,57.182,118.755,0.467,-1.612,-1.648,-1.182,4.23,-5.235,31.017,-31.017,105.026,-77.373
4869,16,75.007,55.951,117.557,0.467,-1.612,-1.648,-1.215,4.23,-4.857,31.017,-31.017,104.938,-77.461
4870,16,74.085,55.26,116.491,0.817,-1.79,-1.744,-1.215,4.23,-4.857,30.463,-30.463,109.563,-77.629
4871,16,72.921,52.675,114.054,1.123,-1.909,-1.876,-1.215,4.154,-4.819,30.463,-30.463,109.489,-77.703
4872,16,71.997,51.811,113.016,1.123,-1.909,-1.876,-1.364,4.154,-4.819,30.585,-30.585,115.98,-77.816
4873,16,71.764,50.402,112.006,1.123,-1.909,-1.876,-1.349,4.154,-4.776,29.905,-29.905,113.863,-77.215
4874,16,71.285,49.6,111.193,1.44,-1.914,-2.018,-1.349,4.154,-4.776,29.065,-29.065,115.553,-78.513
4875,16,70.965,48.105,110.073,1.745,-1.851,-2.15,-1.349,4.125,-4.819,27.237,-27.237,112.413,-74.34
4876,16,70.948,45.778,108.618,1.745,-1.851,-2.15,-1.402,4.125,-4.819,24.806,-24.806,111.488,-71.634
4877,16,71.278,44.257,107.889,1.745,-1.851,-2.15,-1.354,4.115,-4.618,22.81,-22.81,107.542,-67.597
4878,16,71.253,43.425,107.364,2.015,-1.744,-2.271,-1.354,4.115,-4.618,21.983,-21.983,107.42,-69.822
4879,16,72.207,40.367,105.932,2.254,-1.606,-2.384,-1.354,4.11,-4.369,20.142,-20.142,104.53,-65.349
4880,16,72.407,39.468,105.646,2.254,-1.606,-2.384,-1.373,4.11,-4.369,17.571,-17.571,101.06,-63.305
4881,16,73.165,37.912,105.152,2.254,-1.606,-2.384,-1.44,4.053,-4.201,15.752,-15.752,98.229,-58.859
4882,16,73.489,37.096,104.851,2.478,-1.431,-2.467,-1.44,4.053,-4.201,14.708,-14.708,96.259,-61.131
4883,16,74.282,35.529,104.362,2.666,-1.283,-2.518,-1.44,3.938,-4.13,12.854,-12.854,93.288,-56.685
4884,16,75.728,33.192,103.767,2.666,-1.283,-2.518,-1.493,3.938,-4.13,9.763,-9.763,87.889,-53.491
4885,16,76.772,31.663,103.421,2.666,-1.283,-2.518,-1.55,3.953,-3.962,7.921,-7.921,84.784,-49.226
4886,16,77.306,30.894,103.251,2.81,-1.12,-2.544,-1.55,3.953,-3.962,6.588,-6.588,81.491,-50.064
4887,16,78.393,29.387,102.916,2.81,-0.935,-2.544,-1.55,3.953,-3.857,4.747,-4.747,78.265,-45.924
4888,16,80.206,27.178,102.546,2.936,-0.935,-2.547,-1.589,3.953,-3.857,1.433,-1.433,70.771,-42.678
4889,16,81.404,25.719,102.32,2.936,-0.935,-2.547,-1.603,3.909,-3.651,-0.383,0.383,67.368,-38.819
4890,16,82.037,25.017,102.254,2.902,-0.723,-2.55,-1.603,3.909,-3.651,-1.05,1.05,62.737,-40.101
4891,16,84.162,22.385,101.691,2.754,-0.464,-2.546,-1.603,3.838,-3.393,-2.831,2.831,59.261,-36.451
4892,16,85.039,21.522,101.993,2.754,-0.464,-2.546,-1.522,3.838,-3.393,-4.753,4.753,50.21,-34.853
4893,16,86.162,20.144,101.98,2.754,-0.464,-2.546,-1.345,3.785,-3.292,-6.486,6.486,46.637,-31.491
4894,16,86.768,19.495,102.058,2.585,-0.132,-2.519,-1.345,3.785,-3.292,-6.796,6.796,39.491,-34.034
4895,16,87.896,18.168,102.137,2.346,0.223,-2.458,-1.345,3.598,-3.374,-8.466,8.466,35.926,-30.919
4896,16,89.453,16.249,102.524,2.346,0.223,-2.458,-1.158,3.598,-3.374,-10.454,10.454,23.383,-30.715
4897,16,90.332,14.976,102.834,2.346,0.223,-2.458,-1.258,3.522,-3.163,-12.039,12.039,20.575,-27.182
4898,16,90.764,14.375,103.077,1.87,0.591,-2.402,-1.258,3.522,-3.163,-11.1,11.1,12.255,-29.735
4899,16,91.548,13.142,103.499,1.385,0.954,-2.383,-1.258,3.307,-2.713,-12.635,12.635,8.838,-27.012
4900,16,92.359,11.304,104.422,1.385,0.954,-2.383,-1.244,3.307,-2.713,-12.714,12.714,-2.551,-28.39
4901,16,92.424,10.392,104.823,1.385,0.954,-2.383,-1.359,3.431,-3.292,-13.877,13.877,-4.202,-25.392
4902,16,92.696,9.474,105.521,0.552,1.301,-2.379,-1.359,3.431,-3.292,-10.275,10.275,-10.463,-29.4
4903,16,92.757,8.256,106.318,-0.502,1.482,-2.384,-1.359,3.618,-4.058,-10.275,10.275,-10.571,-29.508
4904,16,91.936,6.43,107.689,-0.502,1.482,-2.384,-1.546,3.618,-4.058,-4.941,4.941,-13.806,-33.009
4905,16,91.059,5.559,108.627,-0.502,1.482,-2.384,-1.416,3.699,-4.843,-4.941,4.941,-12.193,-31.396
4906,16,90.216,4.596,109.088,-2.015,1.473,-2.46,-1.416,3.699,-4.843,3.574,-3.574,-9.687,-32.671
4907,16,88.764,3.389,110.061,-3.105,1.441,-2.546,-1.416,3.689,-6.12,3.574,-3.574,-8.764,-31.748
4908,16,85.617,1.559,111.574,-3.105,1.441,-2.546,-1.077,3.689,-6.12,10.101,-10.101,-5.221,-32.52
4909,16,83.75,0.802,112.815,-3.105,1.441,-2.546,-0.952,3.799,-6.876,10.101,-10.101,-2.592,-29.891
4910,16,82.073,-0.245,113.188,-3.732,1.382,-2.616,-0.952,3.799,-6.876,14.112,-14.112,1.36,-29.455
4911,16,79.565,-1.409,114.327,-3.659,1.297,-2.643,-0.952,4.015,-7.273,14.112,-14.112,3.407,-27.408
4912,16,75.833,-3.106,116.083,-3.659,1.297,-2.643,-0.756,4.015,-7.273,14.082,-14.082,7.078,-25.069
4913,16,73.911,-3.674,117.314,-3.659,1.297,-2.643,-0.622,3.929,-7.915,14.082,-14.082,10.165,-21.981
4914,16,72.37,-4.735,117.95,-3.111,1.242,-2.688,-0.622,3.929,-7.915,11.899,-11.899,13.644,-20.739
4915,16,70.138,-5.778,119.253,-2.118,1.25,-2.698,-0.622,3.608,-7.814,11.899,-11.899,15.815,-18.568
4916,16,67.597,-7.275,121.305,-2.118,1.25,-2.698,-0.388,3.608,-7.814,7.068,-7.068,17.055,-17.861
4917,16,66.347,-7.755,122.37,-2.118,1.25,-2.698,-0.163,3.512,-6.833,7.068,-7.068,19.921,-14.994
4918,16,65.642,-8.685,123.426,-1,1.234,-2.671,-0.163,3.512,-6.833,1.134,-1.134,20.484,-13.047
4919,16,64.523,-9.586,124.868,0.242,1.242,-2.632,-0.163,3.503,-6.35,1.134,-1.134,21.87,-11.661
4920,16,63.866,-10.864,127.058,0.242,1.242,-2.632,0.01,3.503,-6.35,-5.556,5.556,20.296,-11.317
4921,16,63.489,-11.307,127.917,0.242,1.242,-2.632,0.158,3.618,-6.249,-5.556,5.556,22.542,-9.071
4922,16,63.839,-12.042,129.337,1.456,1.405,-2.562,0.158,3.618,-6.249,-12.507,12.507,18.509,-9.589
4923,16,64.017,-12.801,130.888,2.406,1.761,-2.476,0.158,3.579,-6.383,-12.507,12.507,18.717,-9.381
4924,16,65.002,-13.763,133.46,2.406,1.761,-2.476,0.163,3.579,-6.383,-18.336,18.336,9.011,-14.773
4925,16,65.276,-14.031,134.372,2.406,1.761,-2.476,0.182,3.464,-6.618,-18.336,18.336,10.879,-12.905
4926,16,66.426,-14.633,136.177,3.332,2.085,-2.36,0.182,3.464,-6.618,-24.416,24.416,2.519,-15.459
4927,16,67.511,-15.208,138.034,3.332,2.085,-2.36,0.182,3.464,-6.618,-24.416,24.416,1.708,-16.27
4928,16,69.472,-16.009,140.93,4.045,2.348,-2.222,0.057,3.493,-6.852,-29.697,29.697,-9.46,-20.568
4929,16,70.211,-16.15,141.951,4.045,2.348,-2.222,0.057,3.493,-6.852,-29.697,29.697,-7.799,-18.906
4930,16,71.641,-16.789,143.941,4.374,2.348,-2.094,-0.077,3.388,-6.69,-32.941,32.941,-12.224,-16.939
4931,16,73.159,-17.287,146.037,4.374,2.65,-2.094,-0.077,3.388,-6.69,-32.941,32.941,-17.947,-22.662
4932,16,75.474,-18.004,149.313,4.59,2.942,-1.944,-0.148,3.412,-6.876,-35.449,35.449,-30.791,-27.997
4933,16,76.344,-17.976,150.564,4.59,2.942,-1.944,-0.148,3.412,-6.876,-35.449,35.449,-28.999,-26.205
4934,16,77.806,-18.71,152.732,4.776,2.942,-1.776,-0.297,3.431,-7.149,-37.553,37.553,-34.591,-23.381
4935,16,79.37,-19.165,155.115,4.776,3.271,-1.776,-0.297,3.431,-7.149,-37.553,37.553,-40.878,-29.668
4936,16,81.804,-19.798,158.803,5.076,3.536,-1.549,-0.402,3.359,-7.833,-40.389,40.389,-55.934,-33.379
4937,16,82.827,-19.598,160.345,5.076,3.536,-1.549,-0.402,3.359,-7.833,-40.389,40.389,-53.992,-31.437
4938,16,84.263,-20.426,162.59,5.154,3.536,-1.332,-0.718,3.287,-8.14,-43.105,43.105,-60.906,-27.485
4939,16,85.881,-20.832,165.179,5.154,3.755,-1.332,-0.718,3.287,-8.14,-43.105,43.105,-65.794,-32.373
4940,16,88.194,-21.442,169.166,5.1,3.972,-1.146,-1.029,3.24,-8.709,-45.422,45.422,-79.409,-36.72
4941,16,89.257,-21.144,170.995,5.1,3.972,-1.146,-1.029,3.24,-8.709,-45.422,45.422,-77.266,-34.577
4942,16,90.312,-22.086,173.248,4.752,3.972,-1.016,-1.512,3.287,-8.618,-47.047,47.047,-81.693,-32.507
4943,16,91.544,-22.528,176.025,4.752,4.158,-1.016,-1.512,3.287,-8.618,-47.047,47.047,-85.74,-36.553
4944,16,92.961,-23.224,-179.712,4.14,4.337,-0.941,-1.9,3.225,-9.02,-46.19,46.19,-95.381,-42.413
4945,16,93.652,-22.922,-177.642,4.14,4.337,-0.941,-1.9,3.225,-9.02,-46.19,46.19,-92.598,-39.629
4946,16,93.89,-23.967,-175.376,3.328,4.337,-0.965,-2.115,3.259,-9.192,-41.825,41.825,-92.317,-40.573
4947,16,94.154,-24.487,-172.44,3.328,4.463,-0.965,-2.115,3.259,-9.192,-41.825,41.825,-94.464,-42.721
4948,16,93.99,-25.295,-167.978,2.468,4.552,-1.025,-2.216,3.24,-9.451,-36.781,36.781,-97.788,-49.027
4949,16,94.003,-25.04,-165.838,2.468,4.552,-1.025,-2.216,3.24,-9.451,-36.781,36.781,-94.092,-45.331
4950,16,93.272,-26.106,-163.486,1.592,4.552,-1.156,-2.182,3.244,-9.355,-30.76,30.76,-90.011,-47.802
4951,16,92.43,-26.642,-160.489,1.592,4.533,-1.156,-2.182,3.244,-9.355,-30.76,30.76,-88.757,-46.547
4952,16,90.619,-27.439,-156.04,0.658,4.423,-1.324,-2.043,3.249,-9.585,-23.99,23.99,-84.469,-50.676
4953,16,89.947,-27.237,-154.09,0.658,4.423,-1.324,-2.043,3.249,-9.585,-23.99,23.99,-80.019,-46.225
4954,16,88.258,-28.178,-151.625,-0.257,4.423,-1.519,-1.952,3.211,-9.719,-16.978,16.978,-73.094,-49.048
4955,16,86.333,-28.641,-148.72,-0.257,4.274,-1.519,-1.952,3.211,-9.719,-16.978,16.978,-68.605,-44.559
4956,16,82.987,-29.292,-144.385,-1.054,4.142,-1.76,-1.809,3.273,-9.738,-9.985,9.985,-60.111,-48.102
4957,16,81.726,-29.146,-142.726,-1.054,4.142,-1.76,-1.809,3.273,-9.738,-9.985,9.985,-55.034,-43.025
4958,16,79.305,-29.84,-140.068,-1.402,4.142,-1.998,-1.632,3.287,-9.944,-5.26,5.26,-46.016,-45.938
4959,16,75.431,-30.284,-135.785,-1.402,3.959,-1.998,-1.632,3.287,-9.944,-5.26,5.26,-40.175,-40.096
4960,16,72.867,-30.598,-133.021,-1.442,3.717,-2.224,-1.416,3.321,-10.336,-2.235,2.235,-26.245,-37.459
4961,16,71.571,-30.543,-131.563,-1.442,3.717,-2.224,-1.416,3.321,-10.336,-2.235,2.235,-24.664,-35.877
4962,16,69.069,-30.929,-128.894,-1.311,3.717,-2.4,-1.168,3.445,-10.69,-0.693,0.693,-17.103,-37.105
4963,16,66.62,-31.113,-126.205,-1.311,3.461,-2.4,-1.168,3.445,-10.69,-0.693,0.693,-10.871,-30.873
4964,16,63.197,-31.326,-122.267,-0.968,3.201,-2.518,-0.78,3.46,-11.011,-0.93,0.93,-4.202,-30.116
4965,16,62.172,-31.338,-120.899,-0.968,3.201,-2.518,-0.78,3.46,-11.011,-0.93,0.93,-4.202,-30.116
4966,16,60.059,-31.458,-118.454,-0.57,3.201,-2.578,-0.785,3.646,-11.097,-2.176,2.176,-2.71,-31.607
4967,16,58.173,-31.524,-116.007,-0.57,2.899,-2.578,-0.785,3.646,-11.097,-2.176,2.176,1.612,-27.285
4968,16,55.577,-31.631,-112.499,-0.331,2.558,-2.638,-0.598,3.737,-11.312,-2.624,2.624,7.973,-23.907
4969,16,54.782,-31.601,-111.336,-0.331,2.558,-2.638,-0.598,3.737,-11.312,-2.624,2.624,7.973,-23.907
4970,16,53.248,-31.73,-109.149,0.056,2.558,-2.664,-0.34,3.862,-10.862,-4.229,4.229,8.639,-24.573
4971,16,51.897,-31.81,-107.016,0.056,2.237,-2.664,-0.34,3.862,-10.862,-4.229,4.229,13.219,-19.992
4972,16,50.172,-31.952,-103.95,0.444,1.965,-2.674,-0.426,3.909,-10.929,-6.048,6.048,17.339,-16.351
4973,16,49.7,-31.92,-102.929,0.444,1.965,-2.674,-0.426,3.909,-10.929,-6.048,6.048,17.339,-16.351
4974,16,48.707,-32.127,-101.011,0.733,1.965,-2.703,-0.632,3.991,-11.829,-7.132,7.132,18.058,-17.07
4975,16,48.113,-32.414,-99.269,0.733,1.686,-2.703,-0.632,3.991,-11.829,-7.132,7.132,22.046,-13.083
4976,16,46.826,-32.605,-96.415,0.958,1.413,-2.756,-0.809,4.067,-12.183,-7.59,7.59,27.288,-10.504
4977,16,46.562,-32.649,-95.512,0.958,1.413,-2.756,-0.809,4.067,-12.183,-7.59,7.59,27.288,-10.504
4978,16,45.944,-33.02,-93.79,1.209,1.413,-2.845,-0.809,4.063,-11.704,-7.729,7.729,29.525,-12.741
4979,16,45.559,-33.427,-92.152,1.209,1.129,-2.845,-0.809,4.063,-11.704,-7.729,7.729,33.573,-8.693
4980,16,44.922,-34.045,-89.627,1.429,0.855,-2.972,-0.847,4.139,-10.925,-7.242,7.242,40.654,-7.951
4981,16,44.809,-34.231,-88.801,1.429,0.855,-2.972,-0.847,4.139,-10.925,-7.242,7.242,40.654,-7.951
4982,16,44.53,-34.843,-87.193,1.767,0.855,-3.113,-0.555,4.053,-10.508,-7.178,7.178,44.169,-11.466
4983,16,44.314,-35.427,-85.531,1.767,0.611,-3.113,-0.555,4.053,-10.508,-7.178,7.178,47.654,-7.981
4984,16,42.186,-30.222,-70.659,10.304,20.96,-9.046,48.153,6.46,-101.536,40.25,-40.25,64.286,-235.714
4985,16,44.742,-25.298,-63.879,10.304,20.96,-9.046,48.153,6.46,-101.536,40.25,-40.25,64.286,-235.714
4986,16,44.137,-22.81,-53.112,10.304,20.96,-5.218,-0.641,36.324,1.072,5.471,-5.471,-5.273,-166.156
4987,16,52.275,-18.653,-40.516,15.206,13.002,-5.218,-0.641,36.324,1.072,5.471,-5.471,-5.273,-166.156
4988,16,56.446,-14.377,-31.823,12.236,15.714,-2.168,0.775,-3.326,-1.349,-32.652,32.652,-81.519,-89.91
4989,16,61.515,-11.629,-27.343,12.236,15.714,-2.168,0.775,-3.326,-1.349,-32.652,32.652,-81.519,-89.91
4990,16,63.323,-8.801,-18.884,10.821,15.714,-0.604,0.598,-2.704,-0.158,-52.2,52.2,-120.614,-50.814
4991,16,70.546,-4.011,-6.167,10.821,15.428,-0.604,0.598,-2.704,-0.158,-52.2,52.2,-120.614,-50.814
4992,16,75.525,-0.994,1.951,10.152,14.872,0.869,-0.153,-0.134,0.493,-70.616,70.616,-157.446,-13.983
4993,16,79.54,0.182,6.02,10.152,14.872,0.869,-0.153,-0.134,0.493,-70.616,70.616,-157.446,-13.983
4994,16,83.694,2.679,14.299,10.152,14.872,2.602,-0.23,-0.775,0.431,-92.281,92.281,-200.775,29.347
4995,16,89.021,2.158,19.902,10.266,14.564,2.602,-0.23,-0.775,0.431,-92.281,92.281,-200.775,29.347
4996,16,99.263,7.273,34.802,10.849,13.778,4.076,0.053,-0.952,-1.392,-109.75,109.75,-235.714,64.286
4997,16,103.023,7.628,38.738,10.849,13.778,4.076,0.053,-0.952,-1.392,-109.75,109.75,-235.714,64.286
4998,16,109.711,8.613,46.888,10.849,13.778,5.421,0.005,-0.876,-1.373,-109.75,109.75,-235.714,64.286
4999,16,116.034,7.368,51.915,11.598,12.651,5.421,0.005,-0.876,-1.373,-109.75,109.75,-235.714,64.286
5000,16,128.513,8.785,66.055,12.239,11.201,6.786,-0.349,-0.986,-1.287,-109.75,109.75,-235.714,64.286
5001,16,132.227,8.584,69.987,12.239,11.201,6.786,-0.349,-0.986,-1.287,-109.75,109.75,-235.714,64.286
5002,16,140.17,7.694,76.819,12.239,11.201,8.033,-0.895,-1.225,-0.684,-109.75,109.75,-235.714,64.286
5003,16,147.393,6.179,81.501,12.701,9.313,8.033,-0.895,-1.225,-0.684,-109.75,109.75,-235.714,64.286
5004,16,159.952,4.818,93.331,13.081,7.292,9.07,-0.928,-1.144,0.048,-109.75,109.75,-235.714,64.286
5005,16,163.853,4.201,97.731,13.081,7.292,9.07,-0.928,-1.144,0.048,-109.75,109.75,-235.714,64.286
5006,16,172.023,2.27,102.518,13.081,7.292,9.921,-0.971,-0.981,0.469,-109.75,109.75,-235.714,64.286
5007,16,-179.964,0.334,107.369,13.335,5.208,9.921,-0.971,-0.981,0.469,-109.75,109.75,-235.714,64.286
5008,16,-168.141,-2.571,117.122,13.516,2.461,10.625,-0.431,-1.22,-0.115,-109.75,109.75,-213.725,86.275
5009,16,-164.132,-4.099,122.55,13.516,2.461,10.625,-0.431,-1.22,-0.115,-109.75,109.75,-213.725,86.275
5010,16,-156.615,-5.826,125.702,13.516,2.461,10.914,-1.378,-1.101,0.947,-109.75,109.75,-213.725,86.275
5011,16,-149.028,-8.041,131.292,13.466,-0.214,10.914,-1.378,-1.101,0.947,-109.75,109.75,-175.513,124.487
5012,16,-140.034,-12.776,139.87,13.202,-2.668,10.583,-1.354,-1.134,1.096,-109.75,109.75,-140.45,159.55
5013,16,-137.212,-15.845,146.062,13.202,-2.668,10.583,-1.354,-1.134,1.096,-109.75,109.75,-140.45,159.55
5014,16,-132.022,-17.469,148.534,13.202,-2.668,10.211,-0.9,-1.244,1.029,-109.75,109.75,-140.45,159.55
5015,16,-127.694,-20.404,154.822,12.565,-4.911,10.211,-0.9,-1.244,1.029,-109.75,109.75,-108.416,191.584
5016,16,-121.241,-24.336,164.604,11.764,-7.091,9.381,-0.928,-1.871,0.952,-109.75,109.75,-76.304,223.696
5017,16,-119.735,-27.733,171.944,11.764,-7.091,9.381,-0.928,-1.871,0.952,-109.75,109.75,-77.265,222.735
5018,16,-115.198,-28.245,175.325,11.764,-7.091,8.343,-0.876,-3.378,0.804,-109.75,109.75,-77.265,222.735
5019,16,-113.415,-30.665,-176.918,10.948,-8.826,8.343,-0.876,-3.378,0.804,-109.75,109.75,-64.286,235.714
5020,16,-110.115,-34.83,-164.869,10.152,-10.42,7.335,-0.986,-0.517,1.067,-101.443,101.443,-47.671,219.1
5021,16,-111.412,-37.851,-156.737,10.152,-10.42,7.335,-0.986,-0.517,1.067,-101.443,101.443,-47.671,219.1
5022,16,-109.484,-38.047,-151.499,10.152,-10.42,6.261,-0.359,0.148,1.096,-88.007,88.007,-20.8,192.228
5023,16,-111.068,-38.704,-142.2,9.968,-11.404,6.261,-0.359,0.148,1.096,-88.007,88.007,-20.8,192.228
5024,16,-111.704,-40.952,-127.187,9.539,-12.083,5.092,-0.479,0.799,1.488,-73.4,73.4,8.415,163.013
5025,16,-112.517,-41.087,-122.175,9.539,-12.083,5.092,-0.479,0.799,1.488,-73.4,73.4,8.415,163.013
5026,16,-114.261,-40.654,-112.211,9.539,-12.083,3.758,-0.852,0.933,1.378,-56.728,56.728,41.758,129.671
5027,16,-116.457,-38.235,-103.531,9.228,-12.564,3.758,-0.852,0.933,1.378,-56.728,56.728,41.758,129.671
5028,16,-117.307,-36.201,-88.708,9.153,-12.974,2.351,-0.809,1.306,0.943,-39.138,39.138,76.938,94.49
5029,16,-117.486,-34.886,-84.339,9.153,-12.974,2.351,-0.809,1.306,0.943,-39.138,39.138,76.938,94.49
5030,16,-117.284,-31.808,-76.019,9.153,-12.974,0.967,-0.651,1.426,0.445,-21.841,21.841,111.533,59.896
5031,16,-115.585,-26.653,-64.348,9.172,-13.209,0.967,-0.651,1.426,0.445,-21.841,21.841,111.533,59.896
