packet_timestamp,statemachine,angle_roll,angle_pitch,angle_yaw,gyro_x,gyro_y,gyro_z,acc_x,acc_y,acc_z,rudder1,rudder2,rudder3,rudder4
2796,16,-3.056,41.567,-4.027,-0.138,0.296,-0.168,2.311,112.954,-5.498,0.074,-0.074,-18.086,-23.376
2797,16,-2.814,41.71,-3.622,-0.138,0.296,-0.168,2.814,70.83,-7.762,0.004,-0.004,-18.189,-23.689
2798,16,-0.972,39.912,-2.113,1.815,-2.382,-0.621,2.814,70.83,-7.762,-4.238,4.238,33.624,4.49
2799,16,0.382,37.376,-0.739,2.466,-7.097,-3.298,1.431,0.115,-7.762,25.265,-25.265,168.289,3.139
2800,16,2.751,33.394,1.793,2.466,-7.097,-3.298,1.431,0.115,-9.355,24.221,-24.221,168.574,2.855
2801,16,3.822,31.375,2.96,2.466,-7.097,-3.298,1.024,1.12,3.153,23.598,-23.598,168.395,3.034
2802,16,8.365,24.867,7.033,3.144,-7.379,-3.196,1.024,1.12,3.153,17.288,-17.288,164.846,6.582
2803,16,9.361,20.644,7.595,4.037,-7.379,-3.057,2.038,1.574,3.153,7.869,-7.869,158.31,13.119
2804,16,11.614,16.218,8.983,4.037,-7.544,-3.057,2.038,1.574,5.498,5.021,-5.021,155.079,16.35
2805,16,12.684,13.991,9.598,4.037,-7.544,-3.057,2.091,1.364,7.532,3.435,-3.435,153.135,18.293
2806,16,17.761,7.425,11.88,4.805,-7.105,-2.958,2.091,1.364,7.532,-3.405,3.405,145.905,25.524
2807,16,18.929,3.664,12.056,5.438,-7.105,-3.002,1.967,0.88,7.532,-7.38,7.38,137.955,33.474
2808,16,21.602,-0.137,12.854,5.438,-6.283,-3.002,1.967,0.88,8.025,-11.056,11.056,130.602,40.827
2809,16,22.922,-2.038,13.184,5.438,-6.283,-3.002,2.067,1.144,6.206,-13.098,13.098,126.518,44.91
2810,16,28.801,-7.456,14.68,6.009,-5.517,-2.994,2.067,1.144,6.206,-17.621,17.621,117.472,53.957
2811,16,30.35,-10.281,14.768,6.428,-5.517,-3.069,1.857,1.392,6.206,-20.137,20.137,112.44,58.989
2812,16,33.474,-13.185,15.366,6.428,-4.508,-3.069,1.857,1.392,5.168,-20.137,20.137,112.44,58.989
2813,16,35.044,-14.632,15.602,6.428,-4.508,-3.069,2.086,1.522,3.752,-20.137,20.137,112.44,58.989
2814,16,41.367,-18.704,16.9,6.753,-3.638,-3.034,2.086,1.522,3.752,-20.577,20.577,106.388,54.694
2815,16,43.354,-20.619,17.022,7.167,-3.638,-2.92,2.158,1.732,3.752,-22.001,22.001,103.538,57.544
2816,16,46.875,-22.724,17.515,7.167,-2.939,-2.92,2.158,1.732,2.259,-22.001,22.001,93.555,47.561
2817,16,48.653,-23.769,17.702,7.167,-2.939,-2.92,2.316,2.048,-0.139,-22.001,22.001,93.555,47.561
2818,16,56.253,-26.889,18.517,8.115,-2.436,-2.802,2.316,2.048,-0.139,-23.479,23.479,83.416,43.334
2819,16,59.435,-28.298,18.61,9.935,-2.436,-2.808,2.364,2.55,-0.139,-23.4,23.4,83.576,43.174
2820,16,64.663,-30.016,18.779,9.935,-2.166,-2.808,2.364,2.55,-3.469,-23.4,23.4,79.711,39.309
2821,16,67.316,-30.866,18.789,9.935,-2.166,-2.808,2.024,2.952,-6.321,-23.4,23.4,79.261,38.859
2822,16,79.404,-33.784,18.346,12.436,-2.132,-2.98,2.024,2.952,-6.321,-21.256,21.256,75.041,26.064
2823,16,85.225,-35.249,18.099,14.806,-2.132,-3.186,2.187,2.986,-6.321,-18.672,18.672,66.3,6.99
2824,16,93.722,-37.002,17.385,14.806,-1.988,-3.186,2.187,2.986,-9.499,-18.672,18.672,53.157,-6.153
2825,16,98.053,-37.859,16.902,14.806,-1.988,-3.186,1.388,2.723,-12.422,-18.672,18.672,47.402,-11.909
2826,16,113.831,-40.817,14.904,16.282,-1.647,-3.393,1.388,2.723,-12.422,-16.089,16.089,34.721,-34.923
2827,16,123.105,-42.646,13.365,16.798,-1.647,-3.698,0.201,2.632,-12.422,-12.281,12.281,37.394,-47.483
2828,16,134.545,-44.737,10.212,16.798,-1.337,-3.698,0.201,2.632,-12.992,-12.281,12.281,32.966,-51.911
2829,16,139.969,-45.228,9.724,16.798,-1.337,-3.698,-0.914,2.732,-11.647,-12.281,12.281,32.966,-51.911
2830,16,157.93,-45.036,4.706,16.705,-0.968,-4.005,-0.914,2.732,-11.647,-8.433,8.433,35.397,-64.873
2831,16,169.715,-46.194,1.302,15.941,-0.968,-4.241,-1.981,2.895,-11.647,-5.49,5.49,41.282,-70.759
2832,16,-177.937,-46.718,-3.303,15.941,-0.518,-4.241,-1.981,2.895,-10.073,30.349,-30.349,106.523,-148.874
2833,16,-172.28,-46.803,-4.341,15.941,-0.518,-4.241,-2.589,2.933,-7.814,41.5,-41.5,128.825,-171.175
2834,16,-154.621,-46.993,-10.457,14.874,0.032,-4.4,-2.589,2.933,-7.814,41.5,-41.5,120.972,-179.028
2835,16,-143.727,-46.09,-14.071,14.874,0.032,-4.439,-2.431,2.972,-7.814,41.5,-41.5,120.972,-179.028
2836,16,-132.743,-45.041,-18.257,13.858,0.778,-4.439,-2.431,2.972,-5.541,41.5,-41.5,110.319,-189.681
2837,16,-127.624,-44.61,-19.492,13.858,0.778,-4.439,-1.967,2.814,-3.957,41.5,-41.5,110.319,-189.681
2838,16,-110.768,-43.083,-25.631,13.218,1.564,-4.254,-1.967,2.814,-3.957,41.5,-41.5,99.088,-200.912
2839,16,-102.637,-41.143,-27.631,13.218,1.564,-3.88,-1.794,2.881,-3.957,39.996,-39.996,107.583,-186.402
2840,16,-93.171,-39.192,-30.648,12.937,2.268,-3.88,-1.794,2.881,-2.747,39.996,-39.996,110.359,-183.626
2841,16,-88.617,-38.434,-31.612,12.937,2.268,-3.88,-1.512,2.732,-2.11,39.996,-39.996,116.43,-177.555
2842,16,-72.241,-35.337,-36.569,12.908,2.779,-3.419,-1.512,2.732,-2.11,34.244,-34.244,109.518,-161.457
2843,16,-66.442,-33.416,-37.027,12.908,2.779,-2.87,-1.402,2.694,-2.11,27.373,-27.373,110.613,-132.878
2844,16,-58.102,-30.962,-38.881,12.687,3.234,-2.87,-1.402,2.694,-1.799,27.373,-27.373,104.115,-139.376
2845,16,-53.944,-30.097,-39.437,12.687,3.234,-2.87,-1.44,2.531,-1.708,27.373,-27.373,104.115,-139.376
2846,16,-38.572,-25.802,-42.806,12.369,3.624,-2.292,-1.44,2.531,-1.708,20.156,-20.156,84.111,-130.512
2847,16,-34.266,-24.358,-42.705,12.369,3.624,-1.691,-1.412,2.383,-1.708,12.632,-12.632,69.064,-115.465
2848,16,-26.797,-21.735,-43.724,12.204,3.89,-1.691,-1.412,2.383,-1.713,12.632,-12.632,65.259,-119.269
2849,16,-22.976,-20.806,-44.034,12.204,3.89,-1.691,-1.416,2.34,-1.402,12.632,-12.632,65.259,-119.269
2850,16,-8.318,-15.88,-45.787,12.178,4.032,-1.109,-1.416,2.34,-1.402,1.378,-1.378,40.727,-98.785
2851,16,-4.6,-14.899,-45.637,12.178,4.032,-0.568,-1.517,2.369,-1.402,-20.691,20.691,-3.412,-54.646
2852,16,2.45,-12.282,-45.968,12.043,4.047,-0.568,-1.517,2.369,-1.192,-29.185,29.185,-20.612,-37.872
2853,16,6.135,-11.422,-46.052,12.043,4.047,-0.568,-1.526,2.402,-0.641,-33.136,33.136,-28.514,-29.97
2854,16,19.838,-6.635,-46.26,11.74,3.964,-0.067,-1.526,2.402,-0.641,-45.74,45.74,-52.535,-3.575
2855,16,23.324,-5.893,-46.234,11.74,3.964,0.398,-1.507,2.412,-0.641,-58.466,58.466,-77.987,21.877
2856,16,29.784,-3.554,-46.024,11.066,3.79,0.398,-1.507,2.412,-0.627,-61.274,61.274,-81.122,29.973
2857,16,33.174,-2.783,-45.936,11.066,3.79,0.398,-1.522,2.268,-0.991,-62.746,62.746,-84.066,32.917
2858,16,44.404,1.162,-45.15,9.759,3.536,0.803,-1.522,2.268,-0.991,-68.54,68.54,-92.018,48.143
2859,16,47.215,1.983,-45.197,9.759,3.536,1.06,-1.732,2.201,-0.991,-71.749,71.749,-100.426,52.571
2860,16,51.498,3.559,-44.433,7.656,3.28,1.06,-1.732,2.201,-1.412,-71.749,71.749,-100.365,52.632
2861,16,54.267,4.595,-44.516,7.656,3.28,1.06,-2.01,2.029,-1.325,-71.749,71.749,-102.627,50.37
2862,16,58.945,6.949,-43.756,4.825,3.056,1.092,-2.01,2.029,-1.325,-72.149,72.149,-102.994,51.6
2863,16,61.265,8.386,-43.124,4.825,3.056,1.092,-2.187,1.904,-1.325,-71.096,71.096,-104.281,46.103
2864,16,62.698,9.247,-42.509,1.887,3.037,0.864,-2.187,1.904,-1.096,-54.494,54.494,-98.146,38.097
2865,16,63.537,10.37,-42.05,1.887,3.037,0.864,-2.187,1.89,-1.67,-53.367,53.367,-96.956,34.781
2866,16,63.502,12.162,-40.626,-0.93,3.279,0.569,-2.187,1.89,-1.67,-34.226,34.226,-91.009,20.496
2867,16,62.576,13.254,-38.93,-0.93,3.279,0.569,-2.168,2.024,-1.67,-32.153,32.153,-87.553,15.659
2868,16,61.386,13.352,-37.299,-3.616,3.586,0.231,-2.168,2.024,-3.287,-14.198,14.198,-82.509,2.593
2869,16,59.862,14.834,-35.319,-3.616,3.586,0.231,-2.259,2.35,-5.412,-12.302,12.302,-79.202,-1.682
2870,16,55.085,16.397,-31.462,-6.212,3.805,-0.167,-2.259,2.35,-5.412,7.28,-7.28,-68.886,-17.775
2871,16,51.326,17.492,-28.861,-6.212,3.805,-0.167,-2.369,2.751,-5.412,9.866,-9.866,-63.631,-22.864
2872,16,47.667,17.404,-27.03,-8.488,3.932,-0.617,-2.369,2.751,-7.929,22.485,-22.485,-52.135,-36.077
2873,16,44.82,19.281,-24.948,-8.488,3.932,-0.617,-2.048,2.589,-10.283,24.71,-24.71,-48.92,-41.759
2874,16,37.343,21.112,-20.993,-9.806,3.885,-1.076,-2.048,2.589,-10.283,32.271,-32.271,-33.514,-56.596
2875,16,32.282,22.353,-18.454,-9.806,3.885,-1.076,-1.55,2.182,-10.283,34.822,-34.822,-29.628,-62.917
2876,16,27.443,22.411,-16.353,-10.238,3.44,-1.576,-1.55,2.182,-10.81,41.802,-41.802,-8.92,-70.127
2877,16,24.578,24.238,-14.772,-10.238,3.44,-1.576,-0.761,2.182,-11.183,43.19,-43.19,-8.276,-75.035
2878,16,17.147,25.629,-11.243,-9.994,2.58,-2.043,-0.761,2.182,-11.183,49.991,-49.991,16.678,-77.285
2879,16,12.56,26.436,-8.987,-9.994,2.58,-2.043,0.368,2.062,-11.183,51.07,-51.07,17.251,-81.028
2880,16,8.375,26.541,-6.824,-8.772,1.605,-2.321,0.368,2.062,-10.221,54.885,-54.885,38.724,-74.815
2881,16,6.228,27.431,-5.69,-8.772,1.605,-2.321,1.412,2,-8.613,55.167,-55.167,38.048,-76.618
2882,16,1.389,27.893,-2.549,-7.015,0.733,-2.334,1.412,2,-8.613,55.526,-55.526,50.836,-65.266
2883,16,-1.274,28.127,-0.525,-7.015,0.733,-2.334,1.895,1.995,-8.613,55.727,-55.727,50.659,-66.249
2884,16,-3.395,28.211,1.44,-5.028,0.154,-2.193,1.895,1.995,-7.326,50.888,-50.888,55.444,-54.755
2885,16,-4.456,28.324,2.42,-5.028,0.154,-2.193,1.948,2.01,-5.934,51.449,-51.449,55.34,-54.98
2886,16,-6.011,28.293,5.172,-3.031,-0.176,-1.973,1.948,2.01,-5.934,39.264,-39.264,54.657,-44.8
2887,16,-6.5,28.269,6.944,-3.031,-0.176,-1.973,2.105,2.316,-5.934,39.811,-39.811,54.78,-44.844
2888,16,-6.446,28.28,8.643,-1.014,-0.25,-1.788,2.105,2.316,-6.321,27.38,-27.38,51.188,-39.153
2889,16,-6.433,28.18,9.505,-1.014,-0.25,-1.788,2.01,2.259,-5.713,27.388,-27.388,51.358,-39.038
2890,16,-4.746,27.95,11.856,1.014,-0.349,-1.577,2.01,2.259,-5.713,14.018,-14.018,47.662,-32.078
2891,16,-3.12,27.743,13.351,1.014,-0.349,-1.577,1.689,2.163,-5.713,12.851,-12.851,47.932,-31.512
2892,16,-0.991,27.507,14.762,2.94,-0.395,-1.378,1.689,2.163,-6.173,-0.42,0.42,43.776,-25.363
2893,16,0.06,27.334,15.462,2.94,-0.395,-1.378,1.364,2.33,-6.857,-1.003,1.003,43.908,-25
2894,16,4.599,26.729,17.365,4.687,-0.513,-1.224,1.364,2.33,-6.857,-13.393,13.393,41.885,-18.488
2895,16,7.932,26.224,18.536,4.687,-0.513,-1.224,0.995,2.44,-6.857,-16.263,16.263,41.973,-16.617
2896,16,11.547,25.615,19.585,5.972,-0.67,-1.076,0.995,2.44,-6.804,-21.15,21.15,40.409,-8.989
2897,16,13.363,25.325,20.125,5.972,-0.67,-1.076,0.565,2.527,-7.47,-21.405,21.405,40.261,-8.121
2898,16,19.297,24.172,21.489,6.724,-0.883,-1.011,0.565,2.527,-7.47,-22.881,22.881,41.219,-1.256
2899,16,23.224,23.283,22.292,6.724,-0.883,-1.011,-0.129,2.617,-7.47,-24.187,24.187,40.057,2.806
2900,16,27.068,22.353,22.948,6.867,-1.159,-1.031,-0.129,2.617,-7.364,-24.98,24.98,43.318,9.239
2901,16,29.069,21.791,23.329,6.867,-1.159,-1.031,-0.742,2.675,-6.618,-25.622,25.622,42.555,11.043
2902,16,34.763,20.071,24.235,6.799,-1.331,-1.164,-0.742,2.675,-6.618,-25.228,25.228,46.558,13.47
2903,16,38.431,18.855,24.784,6.799,-1.331,-1.164,-1.172,2.661,-6.618,-27.673,27.673,43.104,19.794
2904,16,41.835,17.775,25.177,6.502,-1.405,-1.395,-1.172,2.661,-5.694,-26.335,26.335,47.37,18.71
2905,16,43.752,16.931,25.532,6.502,-1.405,-1.395,-1.421,2.656,-4.642,-27.456,27.456,45.59,21.415
2906,16,48.619,14.904,26.337,5.994,-1.313,-1.648,-1.421,2.656,-4.642,-26.02,26.02,47.462,17.541
2907,16,51.689,13.54,26.874,5.994,-1.313,-1.648,-1.383,2.713,-4.642,-29.216,29.216,41.785,24.649
2908,16,54.349,12.496,27.149,5.463,-1.095,-1.863,-1.383,2.713,-4.13,-28.178,28.178,40.712,19.424
2909,16,56.036,11.47,27.695,5.463,-1.095,-1.863,-1.278,2.723,-3.565,-29.63,29.63,37.994,22.513
2910,16,59.777,9.439,28.69,4.765,-0.772,-2.013,-1.278,2.723,-3.565,-29.586,29.586,33.323,17.667
2911,16,62.069,8.102,29.361,4.765,-0.772,-2.013,-1.148,2.689,-3.565,-32.773,32.773,26.859,23.952
2912,16,63.912,7.201,29.63,4.133,-0.52,-2.061,-1.148,2.689,-3.287,-30.9,30.9,22.975,19.91
2913,16,65.208,6.119,30.385,4.133,-0.52,-2.061,-1.273,2.751,-3.345,-30.9,30.9,22.921,19.857
2914,16,67.556,4.185,31.489,3.247,-0.327,-2.084,-1.273,2.751,-3.345,-26.189,26.189,20.461,16.279
2915,16,68.821,2.896,32.228,3.247,-0.327,-2.084,-1.263,2.732,-3.345,-26.189,26.189,20.298,16.115
2916,16,69.679,2.138,32.541,2.275,-0.195,-2.131,-1.263,2.732,-3.115,-20.745,20.745,19.391,12.865
2917,16,70.276,0.968,33.364,2.275,-0.195,-2.131,-1.101,2.579,-3.259,-20.745,20.745,19.515,12.989
2918,16,70.9,-0.961,34.585,1.349,-0.078,-2.19,-1.101,2.579,-3.259,-15.366,15.366,19.478,9.969
2919,16,71.059,-2.247,35.426,1.349,-0.078,-2.19,-1.11,2.651,-3.259,-15.366,15.366,20.114,10.604
2920,16,71.036,-2.9,35.857,0.495,0.021,-2.25,-1.11,2.651,-3.775,-10.354,10.354,20.466,7.974
2921,16,70.893,-4.169,36.745,0.495,0.021,-2.25,-1.062,2.57,-3.996,-10.354,10.354,21.076,8.584
2922,16,70.032,-6.081,38.173,-0.275,0.103,-2.294,-1.062,2.57,-3.996,-5.957,5.957,21.791,7.115
2923,16,69.193,-7.344,39.17,-0.275,0.103,-2.294,-1.249,2.512,-3.996,-5.957,5.957,23.638,8.962
2924,16,68.372,-7.891,39.776,-1.122,0.167,-2.349,-1.249,2.512,-4.292,-1.03,1.03,25.024,7.578
2925,16,67.534,-9.217,40.753,-1.122,0.167,-2.349,-1.038,2.699,-4.613,-1.03,1.03,26.307,8.862
2926,16,65.211,-11.11,42.375,-1.858,0.094,-2.42,-1.038,2.699,-4.613,3.543,-3.543,30.768,9.754
2927,16,63.452,-12.366,43.496,-1.858,0.094,-2.42,-1.11,2.608,-4.613,3.543,-3.543,34.209,13.195
2928,16,61.931,-12.824,44.254,-2.511,0.002,-2.477,-1.11,2.608,-5.144,7.513,-7.513,38.536,14.699
2929,16,60.496,-14.23,45.245,-2.511,0.002,-2.477,-0.909,2.742,-4.795,7.513,-7.513,40.459,16.623
2930,16,57.312,-16.12,47.032,-2.729,-0.143,-2.545,-0.909,2.742,-4.795,9.457,-9.457,44.234,16.988
2931,16,55.24,-17.361,48.297,-2.729,-0.143,-2.545,-0.785,2.56,-4.795,9.457,-9.457,44.234,16.988
2932,16,53.682,-17.794,49.153,-2.431,-0.208,-2.628,-0.785,2.56,-5.034,9.005,-9.005,47.239,15.839
2933,16,52.203,-19.198,50.29,-2.431,-0.208,-2.628,-0.684,2.464,-4.886,9.005,-9.005,47.239,15.839
2934,16,49.686,-21.054,52.421,-1.728,-0.272,-2.728,-0.684,2.464,-4.886,6.741,-6.741,50.656,14.248
2935,16,48.21,-22.26,53.928,-1.728,-0.272,-2.728,-0.589,2.464,-4.886,6.741,-6.741,50.656,14.248
2936,16,47.317,-22.757,54.821,-0.829,-0.244,-2.815,-0.589,2.498,-4.278,3.338,-3.338,52.444,11.669
2937,16,46.295,-24.032,56.315,-0.829,-0.244,-2.815,-84.147,-67.763,-19.801,3.338,-3.338,52.444,11.669
2938,16,32.561,-32.259,75.98,-5.426,4.976,-21.287,-84.147,-67.763,-19.801,91.132,-91.132,107.488,-192.512
2939,16,18.234,-37.118,95.041,-5.426,4.976,-21.287,3.575,-0.833,-19.801,91.132,-91.132,107.488,-192.512
2940,16,8.407,-38.635,107.628,-7.899,2.612,-34.904,3.575,-0.833,-10.901,101.5,-101.5,141.257,-158.743
2941,16,-11.286,-36.489,132.855,-7.899,2.612,-34.904,3.575,-0.833,-10.901,101.5,-101.5,141.257,-158.743
2942,16,-31.317,-22.472,162.771,-5.491,4.194,-33.708,42.956,9.733,9.168,101.5,-101.5,141.257,-158.743
2943,16,-38.31,-9.534,177.872,-5.491,4.194,-33.708,42.956,-37.257,9.168,101.5,-101.5,118.658,-181.342
2944,16,-40.493,-4.659,-178.296,-6.517,5.213,-20.99,23.921,-37.257,-10.355,101.5,-101.5,104.094,-195.906
2945,16,-43.91,5.393,-171.111,-6.517,5.213,-20.99,23.921,-37.257,-10.355,101.5,-101.5,100.461,-199.539
2946,16,-47.062,19.545,-154.422,-9.775,-4.506,-26.786,-27.539,-20.035,-20.61,101.5,-101.5,93.25,-206.75
2947,16,-46.708,28.665,-140.618,-9.775,-4.506,-26.786,-27.539,-20.035,-20.61,101.5,-101.5,215.68,-84.32
2948,16,-43.536,33.237,-130.067,-8.215,-10.777,-34.572,-26.62,4.728,-4.426,101.5,-101.5,235.714,-64.286
2949,16,-33.532,40.865,-105.868,-8.215,-10.777,-34.572,-26.62,4.728,-4.426,101.5,-101.5,235.714,-64.286
2950,16,-6.799,44.242,-62.37,-1.914,-8.948,-34.883,-13.882,6.178,1.364,101.5,-101.5,235.714,-64.286
2951,16,10.35,38.357,-35.207,-1.914,-8.948,-34.883,-13.882,6.178,1.364,75.842,-75.842,235.714,-64.286
2952,16,19.196,34.77,-23.209,5.676,-3.526,-34.87,3.378,10.403,-0.885,41.5,-41.5,193.938,-106.062
2953,16,32.536,24.003,-3.118,5.676,-3.526,-34.87,3.378,10.403,-0.885,41.5,-41.5,207.59,-92.41
2954,16,46.044,6.84,20.337,9.779,3.14,-30.835,8.666,-1.675,-3.646,41.5,-41.5,217.224,-82.775
2955,16,51.872,-5.485,33.636,9.779,3.14,-30.835,8.666,-1.675,-3.646,41.5,-41.5,133.709,-166.291
2956,16,53.687,-11.239,40.891,9.989,7.463,-30.584,-1.804,-6.809,-14.379,41.5,-41.5,71.954,-228.046
2957,16,55.102,-23.159,55.547,9.989,7.463,-30.584,-1.804,-6.809,-14.379,41.5,-41.5,71.954,-228.046
2958,16,45.714,-38.899,85.37,6.167,13.326,-32.968,0.244,-4.374,-8.57,41.5,-41.5,71.954,-228.046
2959,16,31.42,-44.787,112.039,6.167,13.326,-32.968,0.244,-4.374,-8.57,41.5,-41.5,64.286,-235.714
2960,16,21.145,-43.839,126.928,0.217,19.137,-31.525,6.388,-4.79,-0.708,62.913,-62.913,64.286,-235.714
2961,16,4.034,-36.893,153.566,0.217,19.137,-31.525,6.388,-4.79,-0.708,65.32,-65.32,64.286,-235.714
2962,16,-13.063,-19.034,-177.865,-6.477,18.01,-29.639,4.211,-9.178,-8.216,72.97,-72.97,64.286,-235.714
2963,16,-19.41,-4.415,-163.849,-6.477,18.01,-29.639,4.211,-9.178,-8.216,101.5,-101.5,64.286,-235.714
2964,16,-22.841,1.182,-156.371,-11.718,9.219,-30.832,-6.704,-14.643,-9.111,101.5,-101.5,64.286,-235.714
2965,16,-27.489,13.396,-142.139,-11.718,9.219,-30.832,-6.704,-14.643,-9.111,101.5,-101.5,64.286,-235.714
2966,16,-27.616,29.702,-116.238,-12.407,1.494,-33.699,-10.972,-9.599,-1.158,101.5,-101.5,64.286,-235.714
2967,16,-22.396,38.8,-94.808,-12.407,1.494,-33.699,-10.972,-9.599,-1.158,101.5,-101.5,117.048,-182.952
2968,16,-16.707,41.867,-81.928,-9.568,-1.154,-34.853,-8.436,-4.484,-0.115,101.5,-101.5,150.254,-149.746
2969,16,-2.662,44.601,-53.862,-9.568,-1.154,-34.853,-8.436,-4.484,-0.115,101.5,-101.5,145.646,-154.354
2970,16,19.109,38.42,-13.178,-5.664,-2.025,-34.882,-4.723,-2.163,-4.809,101.5,-101.5,145.721,-154.279
2971,16,28.206,28.933,8.681,-5.664,-2.025,-34.882,-4.723,-2.163,-4.809,92.32,-92.32,180.273,-119.727
2972,16,31.68,22.682,17.744,-1.849,-4.494,-34.881,-0.062,-1.058,-7.489,73.246,-73.246,223.095,-76.905
2973,16,35.174,9.204,33.859,-1.849,-4.494,-34.881,-0.062,-1.058,-7.489,73.246,-73.246,235.714,-64.286
2974,16,35.576,-11.67,56.452,2.219,-4.541,-34.881,2.651,-4.402,-4.182,73.246,-73.246,235.714,-64.286
2975,16,31.797,-25.092,72.672,2.219,-4.541,-34.881,2.651,-4.402,-4.182,52.905,-52.905,235.714,-64.286
2976,16,28.58,-29.607,82.877,4.907,2.247,-34.881,2.986,-6.474,-0.215,41.5,-41.5,146.477,-153.523
2977,16,19.062,-36.65,105.58,4.907,2.247,-34.881,2.986,-6.474,-0.215,42.5,-42.5,146.477,-153.523
2978,16,-0.532,-35.952,144.053,3.809,8.787,-34.881,0.852,-7.517,-5.044,42.5,-42.5,146.477,-153.523
2979,16,-9.6,-28.872,167.065,3.809,8.787,-34.881,0.852,-7.517,-5.044,60.953,-60.953,64.286,-235.714
2980,16,-15.003,-24.077,177.695,0.212,9.579,-34.881,-1.364,-8.068,-8.565,78.94,-78.94,64.286,-235.714
2981,16,-20.444,-12.731,-163.682,0.212,9.579,-34.881,-1.364,-8.068,-8.565,78.94,-78.94,64.286,-235.714
2982,16,-23.271,5.339,-137.954,-3.078,8.149,-34.881,-0.866,-11.862,-4.259,78.94,-78.94,64.286,-235.714
2983,16,-19.976,16.53,-120.131,-3.078,8.149,-34.881,-0.866,-11.862,-4.259,95.388,-95.388,64.286,-235.714
2984,16,-19.686,22.98,-111.171,-6.123,8.737,-34.822,-4.34,-12.13,1.732,102.5,-102.5,64.286,-235.714
2985,16,-13.052,33.41,-90.444,-6.123,8.737,-34.822,-4.34,-12.13,1.732,102.5,-102.5,64.286,-235.714
2986,16,3.963,42.766,-51.863,-10.195,7.921,-34.881,-5.991,-7.168,-2.44,102.5,-102.5,64.286,-235.714
2987,16,18.113,42.596,-23.198,-10.195,7.921,-34.881,-5.991,-7.168,-2.44,102.5,-102.5,64.286,-235.714
2988,16,23.079,39.782,-10.231,-12.445,1.435,-34.881,-1.45,-3.551,-6.259,102.5,-102.5,116.654,-183.346
2989,16,29.357,31.157,12.543,-12.445,1.435,-34.881,-1.45,-3.551,-6.259,102.5,-102.5,128.061,-171.939
2990,16,30.392,13.068,39.267,-10.449,-5.436,-34.624,4.259,-3.713,-4.847,102.5,-102.5,134.056,-165.944
2991,16,28.488,4.548,56.425,-10.449,-5.436,-34.624,4.259,-3.713,-4.847,102.5,-102.5,235.714,-64.286
2992,16,24.3,-5.719,63.197,-5.84,-7.59,-33.617,5.412,-8.029,-0.66,94.199,-94.199,235.714,-64.286
2993,16,17.619,-16.998,79.981,-5.84,-7.59,-33.617,5.412,-8.029,-0.66,94.199,-94.199,235.714,-64.286
2994,16,3.546,-28.126,110.128,-1.081,-5.87,-33.943,2.627,-10.197,-1.914,94.199,-94.199,235.714,-64.286
2995,16,-4.97,-29.748,132.117,-1.081,-5.87,-33.943,2.627,-10.197,-1.914,82.803,-82.803,235.714,-64.286
2996,16,-13.098,-30.27,144.886,2.662,-4.269,-34.838,-0.177,-7.494,-7.192,66.69,-66.69,235.714,-64.286
2997,16,-22.114,-26.567,167.795,2.662,-4.269,-34.838,-0.177,-7.494,-7.192,66.69,-66.69,235.714,-64.286
2998,16,-29.269,-15.184,-161.779,4.539,-1.498,-34.882,0.1,-6.503,-5.201,66.69,-66.69,235.714,-64.286
2999,16,-29.819,-6.087,-143.271,4.539,-1.498,-34.882,0.1,-6.503,-5.201,57.305,-57.305,199.968,-100.032
3000,16,-28.867,-0.402,-135.112,3.938,4.07,-34.077,1.258,-6.599,-0.718,60.309,-60.309,120.423,-179.577
3001,16,-24.798,10.352,-118.294,3.938,4.07,-34.077,1.258,-6.599,-0.718,60.309,-60.309,117.241,-182.759
3002,16,-14.849,25.563,-91.978,0.629,9.009,-32.134,0.632,-8.049,-0.584,60.309,-60.309,107.372,-192.628
3003,16,-3.783,33.063,-71.435,0.629,9.009,-32.134,0.632,-8.049,-0.584,71.252,-71.252,64.286,-235.714
3004,16,1.144,36.305,-60.421,-4.176,9.693,-31.271,-1.536,-8.336,-4.661,92.804,-92.804,64.286,-235.714
3005,16,13.716,39.181,-36.393,-4.176,9.693,-31.271,-1.536,-8.336,-4.661,86.435,-86.435,64.286,-235.714
3006,16,29.489,34.097,-1.242,-8.066,6.288,-31.631,-1.771,-6.627,-6.651,85.879,-85.879,64.286,-235.714
3007,16,35.468,27.696,19.348,-8.066,6.288,-31.631,-1.771,-6.627,-6.651,102.5,-102.5,64.286,-235.714
3008,16,36.215,21.879,27.661,-9.079,2.361,-31.839,-0.134,-6.316,-5.493,102.5,-102.5,125.626,-174.374
3009,16,35.734,11.772,43.996,-9.079,2.361,-31.839,-0.134,-6.316,-5.493,102.5,-102.5,137.29,-162.71
3010,16,30.085,0.896,65.738,-9.178,4.461,-25.479,-45.028,-99.263,-57.053,102.5,-102.5,142.943,-157.057
3011,16,25.789,-2.258,80.166,-9.178,4.461,-25.479,-45.028,-99.263,-57.053,102.5,-102.5,114.838,-185.162
3012,16,21.018,-5.464,87.12,-10.047,5.071,-25.404,10.188,14.729,-5.685,102.5,-102.5,106.133,-193.867
3013,16,13.666,-7.3,101.998,-10.047,5.071,-25.404,10.188,14.729,-5.685,102.5,-102.5,106.133,-193.867
3014,16,1.843,-8.969,123.166,-11.313,-0.257,-22.623,2.359,-1.048,-1.163,102.5,-102.5,106.133,-193.867
3015,16,-3.383,-7.443,136.512,-11.313,-0.257,-22.623,2.359,-1.048,-1.163,102.5,-102.5,182.239,-117.761
3016,16,-10.416,-8.955,143.162,-11.305,-4.251,-20.784,-3.699,-16.729,-8.187,102.5,-102.5,235.714,-64.286
3017,16,-18.449,-8.341,155.91,-11.305,-4.251,-20.784,-3.699,-16.729,-8.187,102.5,-102.5,235.714,-64.286
3018,16,-29.158,-6.938,174.961,-9.775,-8.567,-19.555,-5.005,3.125,-7.608,102.5,-102.5,235.714,-64.286
3019,16,-33.042,-5.238,-172.523,-9.775,-8.567,-19.555,-5.005,3.125,-7.608,102.5,-102.5,235.714,-64.286
3020,16,-38.03,-4.494,-165.996,-7.056,-11.64,-18.445,-5.273,7.297,-2.034,102.5,-102.5,235.714,-64.286
3021,16,-42.47,-2.651,-153.169,-7.056,-11.64,-18.445,-5.273,7.297,-2.034,102.5,-102.5,235.714,-64.286
3022,16,-46.219,1.101,-133.791,-3.636,-12.816,-18.293,-1.933,2.857,3.68,102.5,-102.5,235.714,-64.286
3023,16,-47.403,3.935,-120.817,-3.636,-12.816,-18.293,-1.933,2.857,3.68,98.179,-98.179,235.714,-64.286
3024,16,-46.542,6.221,-114.764,0.202,-9.408,-19.489,1.22,0.785,7.436,78.988,-78.988,235.714,-64.286
3025,16,-44.23,10.547,-102.484,0.202,-9.408,-19.489,1.22,0.785,7.436,78.988,-78.988,235.714,-64.286
3026,16,-37.676,17.476,-84.423,2.805,-5.761,-20.045,4.034,1.828,0.809,78.988,-78.988,235.714,-64.286
3027,16,-33.723,22.1,-74.853,2.805,-5.761,-20.045,4.034,1.828,0.809,65.976,-65.976,235.714,-64.286
3028,16,-27.909,22.981,-65.819,4.223,-4.048,-19.271,5.699,0.086,-4.78,58.886,-58.886,216.684,-83.316
3029,16,-20.099,25.209,-53.21,4.223,-4.048,-19.271,5.699,0.086,-4.78,58.886,-58.886,214.255,-85.745
3030,16,-7.881,25.319,-34.786,5.063,-3.963,-17.686,6.556,-2.522,-7.273,58.327,-58.327,212.514,-87.486
3031,16,-0.583,25.369,-23.498,5.063,-3.963,-17.686,6.556,-2.522,-7.273,47.477,-47.477,213.226,-86.774
3032,16,3.392,22.01,-17.899,5.358,-3.98,-16.342,3.225,-3.646,-6.623,43.996,-43.996,218.248,-81.752
3033,16,9.849,18.33,-7.939,5.358,-3.98,-16.342,3.225,-3.646,-6.623,42.5,-42.5,223.277,-76.723
3034,16,18.121,11.718,5.973,5.632,-2.831,-16.422,-0.311,-7.618,-1.991,42.5,-42.5,225.957,-74.043
3035,16,22.766,8.11,14.845,5.632,-2.831,-16.422,-0.311,-7.618,-1.991,42.5,-42.5,219.021,-80.979
3036,16,21.842,4.441,19.925,-4.801,0.424,-19.347,-39.243,-8.24,-5.216,89.006,-89.006,172.515,-127.485
3037,16,19.718,0.54,30.556,-4.801,0.424,-19.347,-39.243,-8.24,-5.216,89.006,-89.006,172.515,-127.485
3038,16,14.185,-4.175,47.193,-6.921,0.768,-20.146,0.134,2.235,4.043,89.006,-89.006,172.515,-127.485
3039,16,9.968,-4.876,57.549,-6.921,0.768,-20.146,0.134,2.235,4.043,101.059,-101.059,167.599,-132.401
3040,16,7.42,-6.568,64.317,-5.387,2.063,-19.358,-5.503,-79.07,-21.777,94.83,-94.83,149.094,-150.906
3041,16,3.205,-6.725,75.56,-5.387,2.063,-19.358,-5.503,-79.07,-21.777,97.437,-97.437,149.094,-150.906
3042,16,-3.542,-5.3,92.998,-6.188,2.271,-20.602,-0.603,-11.752,-7.623,98.759,-98.759,149.094,-150.906
3043,16,-6.799,-2.765,101.106,-6.188,2.271,-20.602,-0.603,-11.752,-7.623,102.5,-102.5,146.127,-153.873
3044,16,-9.493,-2.303,110.806,-5.528,0.281,-21.147,-1.239,8.025,0.292,102.5,-102.5,174.554,-125.446
3045,16,-12.497,0.118,123.123,-5.528,0.281,-21.147,-1.239,8.025,0.292,102.5,-102.5,174.554,-125.446
3046,16,-15.251,4.305,140.975,-4.287,-0.256,-20.177,0.919,4.823,1.302,102.5,-102.5,174.554,-125.446
3047,16,-15.801,6.512,147.112,-4.287,-0.256,-20.177,0.919,4.823,1.302,101.433,-101.433,182.224,-117.776
3048,16,-16.213,8.58,156.958,-2.932,0.724,-14.699,12.724,0.713,-2.249,94.658,-94.658,168.223,-131.777
3049,16,-16.086,11.196,165.569,-2.932,0.724,-14.699,12.724,0.713,-2.249,94.658,-94.658,165.425,-134.575
3050,16,-15.529,14.219,176.003,-2.274,0.715,-9.998,4.91,1.799,-1.522,94.658,-94.658,163.707,-136.293
3051,16,-15.323,15.5,179.007,-2.274,0.715,-9.998,4.91,1.799,-1.522,91.372,-91.372,159.751,-140.249
3052,16,-14.46,16.065,-175.195,-0.944,0.715,-7.963,4.867,-3.187,-5.819,84.659,-84.659,159.053,-140.947
3053,16,-13.355,16.314,-169.883,-0.944,-1.073,-7.963,4.867,-3.187,-5.819,84.084,-84.084,184.338,-115.662
3054,16,-10.57,15.707,-158.944,-0.344,-3.397,-12.578,-4.555,2,-3.182,83.8,-83.8,184.256,-115.744
3055,16,-9.688,14.721,-154.622,-0.344,-3.397,-12.578,-4.555,2,-3.182,79.238,-79.238,220.039,-79.961
3056,16,-7.138,14.431,-145.591,-0.107,-3.397,-16.31,-0.89,6.044,1.727,76.736,-76.736,220.596,-79.404
3057,16,-4.616,13.476,-135.361,-0.107,-2.967,-16.31,-0.89,6.044,1.727,75.439,-75.439,215.909,-84.091
3058,16,-0.463,11.16,-120.181,1.47,-3.225,-16.353,0.632,7.498,-4.292,74.835,-74.835,216.832,-83.168
3059,16,0.789,10.005,-113.765,1.47,-3.225,-16.353,0.632,7.498,-4.292,64.73,-64.73,224.627,-75.373
3060,16,3.552,7.965,-105.942,3.072,-3.225,-14.281,-4.795,14.681,-0.301,55.223,-55.223,224.637,-75.363
3061,16,6.173,5.574,-97.503,3.072,-3.186,-14.281,-4.795,14.681,-0.301,53.752,-53.752,224.089,-75.911
3062,16,7.738,-1.556,-85.186,0.463,-8.865,-15.134,-24.452,44.363,-17.356,53.071,-53.071,224.089,-75.911
3063,16,6.337,-5.841,-78.525,0.463,-8.865,-15.134,-24.452,44.363,-17.356,66.283,-66.283,235.714,-64.286
3064,16,7.121,-11.189,-73.108,1.229,-8.865,-14.961,-7.173,12.106,-0.33,61.641,-61.641,235.714,-64.286
3065,16,5.812,-18.733,-65.021,1.229,-12.328,-14.961,-7.173,12.106,-0.33,61.967,-61.967,235.714,-64.286
3066,16,3.022,-28.21,-51.862,3.416,-9.96,-14.92,3.842,5.187,-0.072,62.478,-62.478,235.714,-64.286
3067,16,-0.538,-31.857,-42.591,3.416,-9.96,-14.92,3.842,5.187,-0.072,55.988,-55.988,235.714,-64.286
3068,16,-0.572,-36.143,-38.646,4.101,-9.96,-12.263,6.795,2.584,-0.148,52.701,-52.701,235.714,-64.286
3069,16,-3.222,-40.593,-30.32,4.101,-7.839,-12.263,6.795,2.584,-0.148,56.801,-56.801,235.714,-64.286
3070,16,-10.218,-44.292,-16.85,1.727,-4.71,-9.838,-0.651,-18.026,-7.714,59.494,-59.494,235.714,-64.286
3071,16,-15.648,-44.602,-7.746,1.727,-4.71,-9.838,-0.651,-18.026,-7.714,71.366,-71.366,235.714,-64.286
3072,16,-16.496,-45.984,-5.658,1.41,-4.71,-3.58,-12.982,-72.337,-17.858,67.702,-67.702,225.223,-53.795
3073,16,-18.312,-47.666,-1.562,1.41,-4.347,-3.58,-12.982,-72.337,-17.858,67.702,-67.702,225.223,-53.795
3074,16,-20.276,-49.841,3.535,1.545,-3.309,-2.241,-2.115,6.599,-0.105,67.702,-67.702,225.223,-53.795
3075,16,-21.116,-50.331,6.302,1.545,-3.309,-2.241,-2.115,6.599,-0.105,50.293,-50.293,181.872,-30.194
3076,16,-21.714,-51.828,7.967,1.832,-3.309,-1.737,-0.163,0.105,-0.957,42.557,-42.557,169.275,-17.597
3077,16,-22.517,-53.222,10.795,1.832,-3.435,-1.737,-0.163,0.105,-0.957,42.557,-42.557,171.086,-15.786
3078,16,-23.616,-54.718,14.808,1.801,-2.402,-1.712,-0.278,0.167,-0.584,42.557,-42.557,171.086,-15.786
3079,16,-24.032,-54.982,17.113,1.801,-2.402,-1.712,-0.278,0.167,-0.584,42.392,-42.392,155.685,-29.909
3080,16,-24.41,-55.596,18.378,1.781,-2.402,-1.451,0.225,-0.435,-0.287,39.231,-39.231,149.16,-23.384
3081,16,-24.57,-55.783,20.287,1.781,-1.159,-1.451,0.225,-0.435,-0.287,39.231,-39.231,131.401,-41.144
3082,16,-23.937,-55.386,22.033,1.698,0.383,-0.936,0.325,-2.637,-0.646,39.231,-39.231,131.401,-41.144
3083,16,-23.365,-55.108,22.971,1.698,0.383,-0.936,0.325,-2.637,-0.646,33.214,-33.214,96.502,-50.316
3084,16,-22.511,-54.36,22.753,1.596,0.383,-0.451,-0.703,-7.269,-1.593,27.654,-27.654,84.358,-38.172
3085,16,-21.101,-53.265,22.62,1.596,1.841,-0.451,-0.703,-7.269,-1.593,27.654,-27.654,63.54,-58.991
3086,16,-18.809,-51.656,21.762,1.026,2.128,0.334,-3.125,-17.04,-4.441,27.654,-27.654,63.54,-58.991
3087,16,-17.566,-51.189,21.316,1.026,2.128,0.334,-3.125,-17.04,-4.441,20.69,-20.69,39.803,-43.472
3088,16,-16.627,-50.184,19.855,-1.566,2.128,2.217,-2.948,-11.173,-5.713,10.12,-10.12,-7.255,3.586
3089,16,-15.407,-49.329,17.58,-1.566,2.265,2.217,-2.948,-11.173,-5.713,10.12,-10.12,-9.203,1.638
3090,16,-13.448,-47.182,13.972,-1.513,3.745,2.272,-4.565,-3.565,2.608,10.12,-10.12,-9.203,1.638
3091,16,-12.455,-46.415,11.848,-1.513,3.745,2.272,-4.565,-3.565,2.608,9.161,-9.161,-31.741,-18.13
3092,16,-12.157,-44.226,10.525,-3.176,3.745,1.833,-3.35,-2.421,-4.335,22.961,-22.961,-20.768,-29.102
3093,16,-12.171,-41.777,8.467,-3.176,4.881,1.833,-3.35,-2.421,-4.335,22.961,-22.961,-36.991,-45.325
3094,16,-13.096,-38.395,6.037,-3.822,4.18,1.25,-9.747,-2.101,-9.843,22.961,-22.961,-36.991,-45.325
3095,16,-14.427,-37.249,5.613,-3.822,4.18,1.25,-9.747,-2.101,-9.843,33.491,-33.491,-12.383,-49.905
3096,16,-14.488,-34.894,4.151,-3.314,4.18,0.305,-5.111,-0.818,-5.331,42.762,-42.762,11.239,-73.528
3097,16,-15.567,-33.483,3.439,-3.314,4.85,0.305,-5.111,-0.818,-5.331,42.762,-42.762,1.667,-83.1
3098,16,-16.151,-27.343,0.756,-2.722,6.85,1.442,0.613,-2.594,-5.771,42.762,-42.762,1.667,-83.1
3099,16,-16.767,-25.556,-0.104,-2.722,6.85,1.442,0.613,-2.594,-5.771,25.579,-25.579,-55.34,-83.222
3100,16,-16.752,-22.052,-2.483,-3.31,6.85,2.656,-1.785,1.512,-13.312,13.353,-13.353,-85.673,-52.888
3101,16,-17.366,-20.424,-4.792,-3.31,7.137,2.656,-1.785,1.512,-13.312,13.172,-13.172,-90.144,-56.635
3102,16,-18.647,-13.03,-8.907,-3.156,7.623,2.501,-4.369,3.192,-20.748,10.89,-10.89,-94.708,-52.071
3103,16,-19.618,-11.185,-10.125,-3.156,7.623,2.501,-4.369,3.192,-20.748,9.981,-9.981,-101.931,-58.727
3104,16,-20.411,-8.561,-12.124,-3.156,7.623,1.876,-5.584,4.35,-22.079,16.753,-16.753,-88.386,-72.272
3105,16,-21.791,-8.028,-13.322,-3.332,3.171,1.876,-5.584,4.35,-22.079,18.448,-18.448,-23.158,-10.307
3106,16,-24.295,-6.422,-14.307,-3.336,0.104,0.769,-2.426,0.507,-6.369,18.038,-18.038,-23.977,-9.488
3107,16,-25.888,-6.504,-14.31,-3.336,0.104,0.769,-2.426,0.507,-6.369,34.452,-34.452,52.619,1.541
3108,16,-26.755,-6.418,-14.516,-3.336,0.104,0.769,-0.191,2.067,-2.115,35.034,-35.034,53.783,0.377
3109,16,-28.408,-6.643,-14.285,-3.283,-0.617,0.377,-0.191,2.067,-2.115,41.061,-41.061,76.673,-1.908
3110,16,-30.803,-7.221,-13.82,-3.283,-0.617,0.377,-0.191,2.067,-2.115,41.702,-41.702,77.955,-3.19
3111,16,-32.281,-7.563,-13.538,-3.008,-1.211,0.398,1.144,4.575,-8.36,40.061,-40.061,85.914,5.835
3112,16,-33.1,-8.014,-13.166,-3.008,-1.211,0.398,2.153,7.551,-14.863,40.061,-40.061,85.914,5.835
3113,16,-34.556,-8.441,-12.665,-2.736,-1.742,0.469,2.153,7.551,-14.863,37.819,-37.819,91.735,15.171
3114,16,-36.617,-9.726,-11.744,-2.736,-1.742,0.469,2.153,7.551,-14.863,37.819,-37.819,91.735,15.171
3115,16,-37.835,-9.959,-11.496,-2.485,-0.945,0.554,2.33,2.038,-10.68,35.502,-35.502,78.221,5.918
3116,16,-38.542,-10.314,-11.199,-2.485,-0.945,0.554,2.225,0.163,-7.881,35.502,-35.502,78.221,5.918
3117,16,-39.275,-10.473,-10.964,-1.539,-0.707,0.573,2.225,0.163,-7.881,30.533,-30.533,74.348,3.004
3118,16,-39.942,-10.912,-10.475,-1.539,-0.707,0.573,2.225,0.163,-7.881,30.533,-30.533,74.348,3.004
3119,16,-39.836,-10.913,-10.329,-0.059,-0.32,0.216,3.646,-0.321,-7.795,27.59,-27.59,77.731,-11.457
3120,16,-39.789,-10.933,-10.006,-0.059,-0.32,0.216,2.651,-0.613,-8.714,27.59,-27.59,77.731,-11.457
3121,16,-39.252,-10.679,-9.776,0.668,0.317,-0.052,2.651,-0.613,-8.714,27.313,-27.313,75.341,-27.268
3122,16,-38.345,-10.006,-9.521,0.668,0.317,-0.052,2.651,-0.613,-8.714,27.313,-27.313,75.341,-27.268
3123,16,-37.609,-9.75,-9.474,1.079,0.556,-0.163,1.67,1.091,-9.915,26.642,-26.642,74.702,-33.447
